overlapRound	Item1	Item2	sn	cond	sess	trial	trial_type	title	typeOfScen	keybResp	keyDef	keybRT	rtBeep	rtDeadline	averageP	sdP	overlap	direct.xVy	correct	targetPresent	dirOverlap	correct01	res.RT	fit.RT	overlapRoundSN
0.05	a rapist	an astronaut	79	random	1	9	1	unidentified	personal	d	No	8.352318548226	N/A	-1	0.0476384615384615	0.0184543359451891	0.095276923076923	-1	1	FALSE	-0.904723076923077	1	0.155768978776642	8.19654956944936	0.05
0.05	a terrorist	a college student	79	random	1	156	1	unidentified	impersonal	d	No	7.80098207125774	N/A	-1	0.954008547008547	0.0198968379250805	0.091982905982906	-1	1	FALSE	-0.908017094017094	1	-0.0652866175852287	7.86626868884297	0.05
0.05	a soldier	a terrorist	79	random	1	73	1	unidentified	impersonal	k	Yes	7.52994337060159	N/A	-1	0.964924369747899	0.0165859866244675	0.0701512605042016	1	1	TRUE	0.929848739495798	1	-0.521139353390139	8.05108272399173	0.05
0.05	an adult	a pedophile	79	random	1	161	1	unidentified	impersonal	k	Yes	7.71824095195932	N/A	-1	0.034344262295082	0.015825463196448	0.0686885245901639	1	1	TRUE	0.931311475409836	1	-0.13703082864606	7.85527178060538	0.05
0.05	a pedophile	an orphan	79	random	1	90	1	unidentified	personal	d	No	7.71110125184016	N/A	-1	0.0286747967479675	0.0146488578211018	0.0573495934959349	-1	1	FALSE	-0.942650406504065	1	-0.301777692508716	8.01287894434887	0.05
0.05	an orphan	a rapist	79	random	1	113	1	strangle	personal	k	Yes	7.39939808333135	N/A	-1	0.0348650793650794	0.0158741101836107	0.0697301587301588	1	1	TRUE	0.930269841269841	1	-0.562081781429939	7.96147986476129	0.05
0.05	a terrorist	an astronaut	79	random	1	173	1	unidentified	impersonal	d	No	7.63819824428578	N/A	-1	0.0457317073170732	0.0179179913546918	0.0914634146341463	-1	1	FALSE	-0.908536585365854	1	-0.190743639467422	7.8289418837532	0.05
0.05	a pedophile	a college student	79	random	1	142	1	strangle	impersonal	d	No	8.0702808933939	N/A	-1	0.961213114754098	0.0176425906742174	0.0775737704918034	-1	1	FALSE	-0.922426229508197	1	0.173138891216794	7.89714200217711	0.05
0.05	a rapist	a mentor	79	random	1	111	1	strangle	impersonal	d	No	8.11820704940578	N/A	-1	0.950279069767442	0.0195449724178816	0.0994418604651164	-1	1	FALSE	-0.900558139534884	1	0.152270818358928	7.96593623104685	0.05
0.05	an astronaut	a pedophile	79	random	1	61	1	strangle	personal	k	Yes	7.78821155784708	N/A	-1	0.0383125	0.0167948861566107	0.0766249999999999	1	1	TRUE	0.923375	1	-0.289948155707055	8.07815971355413	0.05
0.05	an orphan	a pedophile	79	random	1	45	1	strangle	impersonal	d	No	7.88945914940452	N/A	-1	0.0286747967479675	0.0146488578211018	0.0573495934959349	1	0	TRUE	0.942650406504065	0	-0.224944924831312	8.11440407423584	0.05
0.05	an elderly person	a terrorist	79	random	1	43	1	strangle	impersonal	k	Yes	7.40853056689463	N/A	-1	0.0362586206896552	0.0177171171099633	0.0725172413793104	1	1	TRUE	0.92748275862069	1	-0.710415471568725	8.11894603846335	0.05
0.05	a pedophile	an elderly person	79	random	1	54	1	unidentified	personal	d	No	7.79811262882979	N/A	-1	0.0328429752066116	0.016647060031823	0.0656859504132231	-1	1	FALSE	-0.934314049586777	1	-0.295884029518504	8.09399665834829	0.05
0.05	a pedophile	an olympian	79	random	1	52	1	unidentified	personal	d	No	7.81197342962202	N/A	-1	0.0391949152542373	0.0182843377994394	0.0783898305084746	-1	1	FALSE	-0.921610169491525	1	-0.286553770087473	8.0985271997095	0.05
0.05	a mentor	a pedophile	79	random	1	24	1	strangle	impersonal	k	Yes	8.06211758275474	N/A	-1	0.961666666666667	0.0173950872145792	0.0766666666666667	1	1	TRUE	0.923333333333333	1	-0.100104115552579	8.16222169830732	0.05
0.05	an elderly person	a rapist	79	random	1	150	1	strangle	personal	k	Yes	7.19893124068817	N/A	-1	0.0392926829268293	0.0180077483800635	0.0785853658536585	1	1	TRUE	0.921414634146342	1	-0.680554061349693	7.87948530203787	0.05
0.05	a mentor	a terrorist	79	random	1	87	1	unidentified	personal	k	Yes	7.46106551435428	N/A	-1	0.95297520661157	0.0189202799156536	0.0940495867768594	1	1	TRUE	0.905950413223141	1	-0.55854207603236	8.01960759038664	0.05
0.15	a soldier	a thief	79	random	1	168	1	unidentified	personal	k	Yes	7.59085212368858	N/A	-1	0.906613445378151	0.025824002044797	0.186773109243697	1	1	TRUE	0.813226890756303	1	-0.249049808029561	7.83990193171814	0.15
0.15	a terrorist	a judge	79	random	1	134	1	strangle	impersonal	d	No	7.74109909003537	N/A	-1	0.928949579831933	0.0235531555332125	0.142100840336134	-1	1	FALSE	-0.857899159663866	1	-0.173739178197769	7.91483826823313	0.15
0.15	an elderly person	an assassin	79	random	1	128	1	unidentified	personal	k	Yes	7.52294091807237	N/A	-1	0.0712727272727273	0.0231500429987852	0.142545454545455	1	1	TRUE	0.857454545454545	1	-0.405195568163384	7.92813648623575	0.15
0.15	an olympian	an assassin	79	random	1	98	1	strangle	impersonal	d	No	7.99967857949945	N/A	-1	0.0995338983050847	0.0275945757922735	0.199067796610169	1	0	TRUE	0.800932203389831	0	0.004715103902865	7.99496347559659	0.15
0.15	an elderly person	a thief	79	random	1	23	1	strangle	personal	k	Yes	8.33327035325531	N/A	-1	0.0895086206896552	0.0267379426677014	0.17901724137931	1	1	TRUE	0.82098275862069	1	0.168764609666827	8.16450574358848	0.15
0.15	an orphan	a thief	79	random	1	74	1	unidentified	impersonal	k	Yes	7.52023455647463	N/A	-1	0.0788474576271186	0.0245323452626974	0.157694915254237	1	1	TRUE	0.842305084745763	1	-0.528595852670187	8.04883040914481	0.15
0.15	a police officer	a terrorist	79	random	1	193	1	strangle	personal	k	Yes	8.49801037199946	N/A	-1	0.935637795275591	0.0224759664173576	0.128724409448819	1	1	TRUE	0.871275590551181	1	0.712755674570514	7.78525469742895	0.15
0.15	an assassin	an olympian	79	random	1	10	1	strangle	personal	d	No	8.00570067866254	N/A	-1	0.0995338983050847	0.0275945757922735	0.199067796610169	-1	1	FALSE	-0.800932203389831	1	-0.188555881148039	8.19425655981058	0.15
0.15	a rapist	an olympian	79	random	1	77	1	unidentified	personal	d	No	7.91388671485608	N/A	-1	0.0517416666666667	0.0204622761786923	0.103483333333333	-1	1	FALSE	-0.896516666666667	1	-0.12819052959448	8.04207724445056	0.15
0.15	a nun	a pedophile	79	random	1	131	1	strangle	personal	k	Yes	7.96380795323145	N/A	-1	0.944614173228346	0.0199964242778091	0.110771653543307	1	1	TRUE	0.889228346456693	1	0.0423233665498532	7.9214845866816	0.15
0.15	a homeless adult	a rapist	79	random	1	146	1	strangle	personal	k	Yes	7.52294091807237	N/A	-1	0.910634328358209	0.024718673677556	0.178731343283582	1	1	TRUE	0.821268656716418	1	-0.365367793829085	7.88830871190146	0.15
0.15	a terrorist	a judge	79	random	1	41	1	unidentified	impersonal	d	No	8.88266929130804	N/A	-1	0.928949579831933	0.0235531555332125	0.142100840336134	-1	1	FALSE	-0.857899159663866	1	0.759178746293809	8.12349054501423	0.15
0.15	an assassin	a soldier	79	random	1	152	1	unidentified	impersonal	d	No	7.89431806384162	N/A	-1	0.925896	0.0230590742421482	0.148208	-1	1	FALSE	-0.851792	1	0.019240765035156	7.87507729880647	0.15
0.15	an astronaut	an assassin	79	random	1	195	1	strangle	personal	k	Yes	8.26513562993738	N/A	-1	0.0898828125	0.0251099939948124	0.179765625	1	1	TRUE	0.820234375	1	0.484236220518765	7.78089940941862	0.15
0.15	a soldier	a thief	79	random	1	188	1	unidentified	impersonal	k	Yes	8.11731246160197	N/A	-1	0.906613445378151	0.025824002044797	0.186773109243697	1	1	TRUE	0.813226890756303	1	0.321158875642485	7.79615358595949	0.15
0.15	a nun	a terrorist	79	random	1	177	1	unidentified	impersonal	k	Yes	7.48380668766583	N/A	-1	0.924688524590164	0.0232050767994503	0.150622950819672	1	1	TRUE	0.849377049180328	1	-0.336378190554056	7.82018487821989	0.15
0.25	an olympian	a thief	79	random	1	85	1	unidentified	impersonal	k	Yes	7.91826468609527	N/A	-1	0.130849557522124	0.0315607070630143	0.261699115044248	1	1	TRUE	0.738300884955752	1	-0.105831807045165	8.02409649314044	0.25
0.25	a terrorist	a celebrity	79	random	1	132	1	strangle	impersonal	d	No	7.57967882309046	N/A	-1	0.869756756756757	0.0320026196194734	0.260486486486486	-1	1	FALSE	-0.739513513513514	1	-0.339589704216791	7.91926852730725	0.25
0.25	a police officer	a thief	79	random	1	179	1	unidentified	personal	k	Yes	7.87853419614036	N/A	-1	0.854661417322835	0.0310637653465034	0.290677165354331	1	1	TRUE	0.709322834645669	1	0.0627241468454525	7.81581004929491	0.25
0.25	a billionaire	a terrorist	79	random	1	15	1	strangle	personal	k	Yes	8.3513747067213	N/A	-1	0.894315315315315	0.0286633224386688	0.211369369369369	1	1	TRUE	0.788630630630631	1	0.168573576546795	8.1828011301745	0.25
0.25	a soldier	a convict	79	random	1	162	1	unidentified	personal	k	Yes	7.66293785046154	N/A	-1	0.124821705426357	0.0296872529638241	0.249643410852713	1	1	TRUE	0.750356589147287	1	-0.190136394003108	7.85307424446464	0.25
0.25	a pedophile	a celebrity	79	random	1	171	1	unidentified	personal	d	No	7.45876269238096	N/A	-1	0.891396551724138	0.028483929217034	0.217206896551724	-1	1	FALSE	-0.782793103448276	1	-0.374561370722689	7.83332406310365	0.25
0.25	a pedophile	a congressman	79	random	1	88	1	strangle	impersonal	d	No	8.31066090590723	N/A	-1	0.873739130434783	0.0300818889519302	0.252521739130435	-1	1	FALSE	-0.747478260869565	1	0.293296825103265	8.01736408080396	0.25
0.25	a gang member	an elderly person	79	random	1	86	1	unidentified	impersonal	d	No	8.12563098847706	N/A	-1	0.111577586206897	0.0281335799456093	0.223155172413793	-1	1	FALSE	-0.776844827586207	1	0.103779260703488	8.02185172777358	0.25
0.25	a college student	a thief	79	random	1	30	1	unidentified	impersonal	k	Yes	8.21311069759668	N/A	-1	0.87442735042735	0.0311801202848037	0.251145299145299	1	1	TRUE	0.748854700854701	1	0.0645798588902551	8.14853083870642	0.25
0.25	a homeless adult	an assassin	79	random	1	158	1	strangle	impersonal	k	Yes	7.5234813125735	N/A	-1	0.851590909090909	0.0323140421403737	0.296818181818182	1	1	TRUE	0.703181818181818	1	-0.33838676677909	7.86186807935259	0.25
0.25	a mentor	a gang member	79	random	1	124	1	unidentified	personal	k	Yes	7.72001794043224	N/A	-1	0.121487603305785	0.0284828903234445	0.24297520661157	1	1	TRUE	0.75702479338843	1	-0.216996435029909	7.93701437546215	0.25
0.25	an assassin	a nun	79	random	1	35	1	unidentified	personal	d	No	8.0532511535491	N/A	-1	0.856574803149606	0.0288044337409113	0.286850393700787	-1	1	FALSE	-0.713149606299213	1	-0.0838881792923463	8.13713933284144	0.25
0.25	a terrorist	a billionaire	79	random	1	157	1	unidentified	personal	d	No	7.85593219971861	N/A	-1	0.894315315315315	0.0286633224386688	0.211369369369369	-1	1	FALSE	-0.788630630630631	1	-0.00813587656513981	7.86406807628375	0.25
0.25	a gang member	a college student	79	random	1	97	1	strangle	personal	d	No	7.50328963067508	N/A	-1	0.858273504273504	0.0315045829003627	0.283452991452992	-1	1	FALSE	-0.716547008547008	1	-0.493911086113237	7.99720071678832	0.25
0.25	a rapist	a celebrity	79	random	1	17	1	strangle	personal	d	No	7.85010354517558	N/A	-1	0.874705882352941	0.0295773111610786	0.250588235294118	-1	1	FALSE	-0.749411764705882	1	-0.328119898457087	8.17822344363267	0.25
0.25	a pedophile	an addict	79	random	1	40	1	strangle	personal	d	No	8.49984355308112	N/A	-1	0.118520661157025	0.0304063224915403	0.23704132231405	-1	1	FALSE	-0.76295867768595	1	0.374079800975524	8.1257637521056	0.25
0.25	an adult	a gang member	79	random	1	89	1	strangle	impersonal	k	Yes	8.279189777195	N/A	-1	0.127264957264957	0.0301072040623707	0.254529914529914	1	1	TRUE	0.745470085470086	1	0.264068578345107	8.0151211988499	0.25
0.25	a police officer	a gang member	79	random	1	178	1	strangle	impersonal	k	Yes	8.1758290087146	N/A	-1	0.141937007874016	0.029939677073058	0.283874015748032	1	1	TRUE	0.716125984251968	1	0.35783185096792	7.81799715774668	0.25
0.25	a gang member	a college student	79	random	1	47	1	unidentified	impersonal	d	No	7.9298464297425	N/A	-1	0.858273504273504	0.0315045829003627	0.283452991452992	-1	1	FALSE	-0.716547008547008	1	-0.180018221166931	8.10986465090943	0.25
0.25	an elderly person	a gang member	79	random	1	76	1	strangle	impersonal	k	Yes	8.30721262662831	N/A	-1	0.111577586206897	0.0281335799456093	0.223155172413793	1	1	TRUE	0.776844827586207	1	0.262884957077832	8.04432766955048	0.25
0.25	a thief	an astronaut	79	random	1	189	1	unidentified	impersonal	d	No	8.59396903021829	N/A	-1	0.117528455284553	0.028543869533805	0.235056910569106	-1	1	FALSE	-0.764943089430894	1	0.79999644190501	7.79397258831328	0.25
0.25	an adult	a gang member	79	random	1	14	1	unidentified	impersonal	k	Yes	8.07868822922987	N/A	-1	0.127264957264957	0.0301072040623707	0.254529914529914	1	1	TRUE	0.745470085470086	1	-0.1064027049954	8.18509093422527	0.25
0.25	a judge	an assassin	79	random	1	70	1	unidentified	personal	k	Yes	7.42892719480227	N/A	-1	0.861274193548387	0.0316994440123548	0.277451612903226	1	1	TRUE	0.722548387096774	1	-0.628916256045157	8.05784345084743	0.25
0.25	an addict	a rapist	79	random	1	12	1	unidentified	impersonal	k	Yes	7.98989937494294	N/A	-1	0.141479674796748	0.0313353744902551	0.282959349593496	1	1	TRUE	0.717040650406504	1	-0.199773089839858	8.1896724647828	0.25
0.25	a convict	an orphan	79	random	1	117	1	unidentified	impersonal	d	No	8.18952211074809	N/A	-1	0.131296875	0.028813158765396	0.26259375	-1	1	FALSE	-0.73740625	1	0.236947500906846	7.95257460984125	0.25
0.25	a thief	an adult	79	random	1	1	1	strangle	impersonal	d	No	8.07496035911586	N/A	-1	0.105282051282051	0.0286804498462789	0.210564102564103	-1	1	FALSE	-0.789435897435897	1	-0.139956402145733	8.21491676126159	0.25
0.35	a convict	a police officer	79	random	1	185	1	unidentified	impersonal	d	No	7.34471905414967	N/A	-1	0.174080291970803	0.0319449219915133	0.348160583941606	-1	1	FALSE	-0.651839416058394	1	-0.45798118730035	7.80270024145002	0.35
0.35	a convict	an adult	79	random	1	83	1	strangle	impersonal	d	No	7.82043951526218	N/A	-1	0.163779527559055	0.0324434073075244	0.32755905511811	-1	1	FALSE	-0.67244094488189	1	-0.208148393254738	8.02858790851692	0.35
0.35	a nun	a gang member	79	random	1	67	1	unidentified	personal	k	Yes	8.67590488257106	N/A	-1	0.159852459016393	0.032052520985684	0.319704918032787	1	1	TRUE	0.680295081967213	1	0.61129502769019	8.06460985488087	0.35
0.35	a convict	a college student	79	random	1	184	1	strangle	personal	d	No	7.38461038317697	N/A	-1	0.810417322834646	0.0339347649336858	0.379165354330709	-1	1	FALSE	-0.620834645669291	1	-0.420273298189967	7.80488368136694	0.35
0.35	a billionaire	an assassin	79	random	1	130	1	unidentified	personal	d	No	8.13563990335439	N/A	-1	0.829521367521368	0.0366999445759961	0.340957264957265	1	0	TRUE	0.659042735042735	0	0.211938637175614	7.92370126617877	0.35
0.35	a billionaire	an assassin	79	random	1	42	1	unidentified	impersonal	k	Yes	8.32044811395656	N/A	-1	0.829521367521368	0.0366999445759961	0.340957264957265	1	1	TRUE	0.659042735042735	1	0.199230140097109	8.12121797385945	0.35
0.35	a nun	a gang member	79	random	1	136	1	unidentified	impersonal	k	Yes	7.81035268372429	N/A	-1	0.159852459016393	0.032052520985684	0.319704918032787	1	1	TRUE	0.680295081967213	1	-0.10005780384488	7.91041048756917	0.35
0.35	a homeless adult	a thief	79	random	1	166	1	strangle	impersonal	k	Yes	7.94767857130157	N/A	-1	0.812293650793651	0.0340138088006348	0.375412698412698	1	1	TRUE	0.624587301587302	1	0.103388325445342	7.84429024585623	0.35
0.35	a gang member	a judge	79	random	1	46	1	strangle	personal	d	No	7.36707705988101	N/A	-1	0.156151260504202	0.0322912672467752	0.312302521008403	-1	1	FALSE	-0.687697478991597	1	-0.745056985167842	8.11213404504885	0.35
0.35	an addict	a terrorist	79	random	1	151	1	unidentified	personal	k	Yes	7.47816969415979	N/A	-1	0.153724137931034	0.0335020884210678	0.307448275862069	1	1	TRUE	0.692551724137931	1	-0.399111297931181	7.87728099209097	0.35
0.35	a homeless adult	a thief	79	random	1	99	1	strangle	impersonal	k	Yes	8.07682603129881	N/A	-1	0.812293650793651	0.0340138088006348	0.375412698412698	1	1	TRUE	0.624587301587302	1	0.0840991710189369	7.99272686027987	0.35
0.35	a convict	a mentor	79	random	1	114	1	unidentified	personal	d	No	7.51425465281641	N/A	-1	0.158511450381679	0.0320277711300361	0.317022900763359	-1	1	FALSE	-0.682977099236641	1	-0.444997963770006	7.95925261658642	0.35
0.35	an astronaut	a convict	79	random	1	169	1	unidentified	impersonal	k	Yes	8.19478163844336	N/A	-1	0.175218045112782	0.0339296475350126	0.350436090225564	1	1	TRUE	0.649563909774436	1	0.357072943104038	7.83770869533932	0.35
0.35	a homeless adult	a gang member	79	random	1	91	1	strangle	impersonal	k	Yes	8.3959291039232	N/A	-1	0.160920634920635	0.0318311457321075	0.32184126984127	1	1	TRUE	0.67815873015873	1	0.38529178679784	8.01063731712536	0.35
0.35	a homeless adult	a gang member	79	random	1	6	1	unidentified	personal	k	Yes	7.74673290775362	N/A	-1	0.160920634920635	0.0318311457321075	0.32184126984127	1	1	TRUE	0.67815873015873	1	-0.456699541265851	8.20343244901947	0.35
0.35	an olympian	a convict	79	random	1	71	1	unidentified	impersonal	k	Yes	7.74630066223144	N/A	-1	0.189569105691057	0.0360981333958361	0.379138211382114	1	1	TRUE	0.620861788617886	1	-0.309288582435203	8.05558924466664	0.35
0.35	a judge	a thief	79	random	1	121	1	strangle	personal	d	No	7.74802852443238	N/A	-1	0.827621848739496	0.0340561759999284	0.344756302521008	1	0	TRUE	0.655243697478992	0	-0.195650791396414	7.94367931582879	0.35
0.35	an addict	a soldier	79	random	1	163	1	strangle	impersonal	d	No	8.03495502450216	N/A	-1	0.81148717948718	0.0363332669184672	0.377025641025641	-1	1	FALSE	-0.622974358974359	1	0.184077701410837	7.85087732309132	0.35
0.45	a judge	a convict	79	random	1	4	1	strangle	personal	k	Yes	8.786456678344	N/A	-1	0.201325581395349	0.0345531512140384	0.402651162790698	1	1	TRUE	0.597348837209302	1	0.578432432270127	8.20802424607387	0.45
0.45	a celebrity	an assassin	79	random	1	141	1	unidentified	impersonal	k	Yes	7.54538974961182	N/A	-1	0.797811965811966	0.0356821925988365	0.404376068376068	1	1	TRUE	0.595623931623932	1	-0.353962120244875	7.8993518698567	0.45
0.45	an astronaut	an addict	79	random	1	135	1	unidentified	impersonal	k	Yes	8.55043452519604	N/A	-1	0.241107438016529	0.0378334440471577	0.482214876033058	1	1	TRUE	0.517785123966942	1	0.637810457009481	7.91262406818656	0.45
0.45	a congressman	an assassin	79	random	1	102	1	strangle	impersonal	k	Yes	8.15679704667565	N/A	-1	0.767817391304348	0.0394308863049614	0.464365217391304	1	1	TRUE	0.535634782608696	1	0.17077627884647	7.98602076782918	0.45
0.45	a billionaire	a gang member	79	random	1	101	1	strangle	personal	d	No	7.88645727097769	N/A	-1	0.777558558558559	0.0391994927445522	0.444882882882883	1	0	TRUE	0.555117117117117	0	-0.101798235593496	7.98825550657119	0.45
0.45	an addict	an adult	79	random	1	72	1	unidentified	personal	d	No	8.09101504171053	N/A	-1	0.218608695652174	0.0385640831832313	0.437217391304348	-1	1	FALSE	-0.562782608695652	1	0.0376793726036482	8.05333566910688	0.45
0.45	a convict	a judge	79	random	1	7	1	unidentified	impersonal	d	No	8.13768818497761	N/A	-1	0.201325581395349	0.0345531512140384	0.402651162790698	-1	1	FALSE	-0.597348837209302	1	-0.0634493288966222	8.20113751387423	0.45
0.45	a thief	a rapist	79	random	1	115	1	strangle	personal	k	Yes	8.19229373114764	N/A	-1	0.230256	0.0376549646177016	0.460512	1	1	TRUE	0.539488	1	0.235267739656661	7.95702599149098	0.45
0.55	a nun	a soldier	79	random	1	187	1	strangle	impersonal	d	No	7.27378631784489	N/A	-1	0.287650406504065	0.0412569309404372	0.57530081300813	-1	1	FALSE	-0.42469918699187	1	-0.524548876072258	7.79833519391715	0.55
0.55	an addict	a police officer	79	random	1	110	1	unidentified	impersonal	d	No	8.29579811063615	N/A	-1	0.734712	0.0395668876030778	0.530576	-1	1	FALSE	-0.469424	1	0.327632761129748	7.9681653495064	0.55
0.55	a celebrity	a gang member	79	random	1	127	1	strangle	impersonal	k	Yes	8.80627428478173	N/A	-1	0.744261261261261	0.0398569023490935	0.511477477477478	1	1	TRUE	0.488522522522522	1	0.875919257638957	7.93035502714277	0.55
0.55	an olympian	an addict	79	random	1	159	1	unidentified	impersonal	d	No	7.97453284413023	N/A	-1	0.263972972972973	0.040312090485972	0.527945945945946	1	0	TRUE	0.472054054054054	0	0.114864146252984	7.85966869787724	0.55
0.55	a celebrity	an orphan	79	random	1	81	1	unidentified	personal	d	No	7.6425241342329	N/A	-1	0.296142857142857	0.0426057980742028	0.592285714285714	-1	1	FALSE	-0.407714285714286	1	-0.390557703689595	8.0330818379225	0.55
0.55	a soldier	a homeless adult	79	random	1	60	1	strangle	impersonal	k	Yes	8.38045666784277	N/A	-1	0.2772578125	0.0409014693302939	0.554515625	1	1	TRUE	0.445484375	1	0.300036432183722	8.08042023565904	0.55
0.55	an addict	an olympian	79	random	1	62	1	unidentified	impersonal	d	No	8.63657494843632	N/A	-1	0.263972972972973	0.040312090485972	0.527945945945946	-1	1	FALSE	-0.472054054054054	1	0.560675124599177	8.07589982383714	0.55
0.55	a mentor	an addict	79	random	1	154	1	strangle	personal	d	No	8.28953948462414	N/A	-1	0.74653781512605	0.0407361600189282	0.506924369747899	1	0	TRUE	0.493075630252101	0	0.418867723089464	7.87067176153468	0.55
0.55	a soldier	a celebrity	79	random	1	39	1	strangle	impersonal	k	Yes	8.37401542173991	N/A	-1	0.270929203539823	0.0404238262219043	0.541858407079646	1	1	TRUE	0.458141592920354	1	0.245977826428396	8.12803759531151	0.55
0.55	an addict	a police officer	79	random	1	149	1	strangle	personal	d	No	7.60140233458373	N/A	-1	0.734712	0.0395668876030778	0.530576	-1	1	FALSE	-0.469424	1	-0.280287894235999	7.88169022881973	0.55
0.65	a billionaire	a soldier	79	random	1	63	1	unidentified	impersonal	d	No	7.49942329059223	N/A	-1	0.33312389380531	0.0441631539761036	0.666247787610619	-1	1	FALSE	-0.333752212389381	1	-0.574217275738936	8.07364056633116	0.65
0.65	a terrorist	a rapist	79	random	1	167	1	unidentified	personal	d	No	8.83389994290864	N/A	-1	0.327384	0.0414411620724361	0.654768	1	0	TRUE	0.345232	0	0.991804161075439	7.8420957818332	0.65
0.65	a nun	an orphan	79	random	1	125	1	strangle	impersonal	d	No	8.22174772834662	N/A	-1	0.31072131147541	0.0423384389985975	0.62144262295082	-1	1	FALSE	-0.37855737704918	1	0.286953756764403	7.93479397158222	0.65
0.65	a pedophile	a rapist	79	random	1	75	1	unidentified	impersonal	k	Yes	8.44160720445964	N/A	-1	0.323461538461538	0.0419052023836566	0.646923076923077	-1	0	FALSE	-0.353076923076923	0	0.39502848006982	8.04657872438982	0.65
0.65	a pedophile	a rapist	79	random	1	44	1	unidentified	impersonal	k	Yes	8.43228868432579	N/A	-1	0.323461538461538	0.0419052023836566	0.646923076923077	-1	0	FALSE	-0.353076923076923	0	0.315613945677711	8.11667473864808	0.65
0.65	a nun	an elderly person	79	random	1	79	1	unidentified	impersonal	d	No	7.99328232810159	N/A	-1	0.321791666666667	0.0436448778377553	0.643583333333333	-1	1	FALSE	-0.356416666666667	1	-0.0442959546627897	8.03757828276438	0.65
0.65	a police officer	a congressman	79	random	1	48	1	strangle	impersonal	k	Yes	8.57357352485234	N/A	-1	0.317361344537815	0.0433028380272686	0.63472268907563	1	1	TRUE	0.36527731092437	1	0.465977633212427	8.10759589163992	0.65
0.65	a mentor	a congressman	79	random	1	191	1	unidentified	personal	d	No	7.87739718635329	N/A	-1	0.309752212389381	0.0433194273991671	0.619504424778761	1	0	TRUE	0.380495575221239	0	0.0877847630809709	7.78961242327232	0.65
0.65	a terrorist	a pedophile	79	random	1	129	1	strangle	personal	d	No	8.12651816878071	N/A	-1	0.304528455284553	0.0402275844667329	0.609056910569106	1	0	TRUE	0.390943089430894	0	0.200599602808412	7.9259185659723	0.65
0.65	an orphan	a homeless adult	79	random	1	155	1	unidentified	impersonal	k	Yes	8.10167774745457	N/A	-1	0.30840157480315	0.041915692975954	0.616803149606299	1	1	TRUE	0.383196850393701	1	0.233207830252068	7.8684699172025	0.65
0.65	a police officer	a congressman	79	random	1	38	1	strangle	impersonal	k	Yes	9.03252863066006	N/A	-1	0.317361344537815	0.0433028380272686	0.63472268907563	1	1	TRUE	0.36527731092437	1	0.902216555850083	8.13031207480997	0.65
0.65	a convict	a terrorist	79	random	1	160	1	unidentified	personal	k	Yes	7.53636393840451	N/A	-1	0.6673125	0.0424776671177487	0.665375	1	1	TRUE	0.334625	1	-0.321105993281038	7.85746993168555	0.65
0.65	a judge	an elderly person	79	random	1	139	1	unidentified	personal	d	No	7.65302041380419	N/A	-1	0.333735042735043	0.0446773279879136	0.667470085470085	-1	1	FALSE	-0.332529914529915	1	-0.250753046755316	7.9037734605595	0.65
0.65	an assassin	a terrorist	79	random	1	80	1	unidentified	personal	k	Yes	8.21554741194707	N/A	-1	0.304105691056911	0.0401970001965495	0.608211382113821	1	1	TRUE	0.391788617886179	1	0.18021766612115	8.03532974582592	0.65
0.65	a homeless adult	an addict	79	random	1	49	1	unidentified	personal	d	No	8.27995071572253	N/A	-1	0.664516129032258	0.041885030889668	0.670967741935484	1	0	TRUE	0.329032258064516	0	0.174622948659829	8.1053277670627	0.65
0.65	an orphan	a homeless adult	79	random	1	194	1	strangle	personal	d	No	7.89989532313973	N/A	-1	0.30840157480315	0.041915692975954	0.616803149606299	1	0	TRUE	0.383196850393701	0	0.11681857435982	7.78307674877991	0.65
0.65	a college student	a celebrity	79	random	1	51	1	strangle	impersonal	k	Yes	8.26693534761046	N/A	-1	0.345309090909091	0.0439224401758251	0.690618181818182	1	1	TRUE	0.309381818181818	1	0.166141926335486	8.10079342127497	0.65
0.65	an orphan	a judge	79	random	1	18	1	strangle	personal	k	Yes	8.00903068506973	N/A	-1	0.323033613445378	0.0420214489238273	0.646067226890756	1	1	TRUE	0.353932773109244	1	-0.16690487571352	8.17593556078325	0.65
0.65	an orphan	a judge	79	random	1	22	1	strangle	personal	k	Yes	7.85243908535751	N/A	-1	0.323033613445378	0.0420214489238273	0.646067226890756	1	1	TRUE	0.353932773109244	1	-0.314351342659544	8.16679042801705	0.65
0.65	a college student	a celebrity	79	random	1	56	1	unidentified	impersonal	k	Yes	8.71210186371566	N/A	-1	0.345309090909091	0.0439224401758251	0.690618181818182	1	1	TRUE	0.309381818181818	1	0.62263321221773	8.08946865149793	0.65
0.65	a homeless adult	an elderly person	79	random	1	25	1	strangle	personal	d	No	8.34924780056679	N/A	-1	0.317927419354839	0.0421036704340274	0.635854838709677	-1	1	FALSE	-0.364145161290323	1	0.189309508572032	8.15993829199476	0.65
0.75	a celebrity	a mentor	79	random	1	186	1	unidentified	personal	d	No	7.26473017792987	N/A	-1	0.352739130434783	0.0430450410601487	0.705478260869565	-1	1	FALSE	-0.294521739130435	1	-0.535787234427185	7.80051741235705	0.75
0.75	a nun	an adult	79	random	1	19	1	strangle	impersonal	d	No	7.70255611326858	N/A	-1	0.387950413223141	0.0423644722438221	0.775900826446281	-1	1	FALSE	-0.224099173553719	1	-0.471092204707426	8.17364831797601	0.75
0.75	an adult	an orphan	79	random	1	55	1	unidentified	impersonal	d	No	7.70300768247924	N/A	-1	0.395822033898305	0.0466636599620169	0.79164406779661	-1	1	FALSE	-0.20835593220339	1	-0.388724655718657	8.09173233819789	0.75
0.75	an addict	a convict	79	random	1	140	1	strangle	personal	d	No	8.66406026722579	N/A	-1	0.369587301587302	0.0420510983908702	0.739174603174603	1	0	TRUE	0.260825396825397	0	0.762497911299307	7.90156235592648	0.75
0.75	a judge	a congressman	79	random	1	94	1	strangle	impersonal	d	No	9.17595594511435	N/A	-1	0.374252252252252	0.0462967044455262	0.748504504504505	1	0	TRUE	0.251495495495495	0	1.17203974774908	8.00391619736527	0.75
0.75	a nun	a congressman	79	random	1	16	1	strangle	impersonal	d	No	8.25738565573044	N/A	-1	0.392754385964912	0.0443798280555076	0.785508771929824	1	0	TRUE	0.214491228070176	0	0.0768736890270691	8.18051196670337	0.75
0.75	a judge	an adult	79	random	1	180	1	strangle	personal	d	No	7.17165682276851	N/A	-1	0.391525423728814	0.0422309766491521	0.783050847457627	-1	1	FALSE	-0.216949152542373	1	-0.64196672992486	7.81362355269337	0.75
0.75	a gang member	a rapist	79	random	1	82	1	strangle	personal	k	Yes	7.97212112892166	N/A	-1	0.643832	0.0417388297141392	0.712336	1	1	TRUE	0.287664	1	-0.0587134299564838	8.03083455887814	0.75
0.75	a congressman	a nun	79	random	1	137	1	unidentified	personal	d	No	7.78821155784708	N/A	-1	0.392754385964912	0.0443798280555076	0.785508771929824	-1	1	FALSE	-0.214491228070176	1	-0.119985968360606	7.90819752620768	0.75
0.75	an addict	a celebrity	79	random	1	172	1	strangle	impersonal	d	No	7.82524529143177	N/A	-1	0.617743119266055	0.0462241766613936	0.76451376146789	-1	1	FALSE	-0.23548623853211	1	-0.00588737547177942	7.83113266690355	0.75
0.75	a nun	a police officer	79	random	1	95	1	strangle	impersonal	d	No	8.41493895737748	N/A	-1	0.379908396946565	0.0422025858989117	0.75981679389313	-1	1	FALSE	-0.24018320610687	1	0.413261879880032	8.00167707749745	0.75
0.75	a celebrity	an adult	79	random	1	68	1	strangle	personal	d	No	7.69484807238461	N/A	-1	0.361099099099099	0.0450633262870011	0.722198198198198	-1	1	FALSE	-0.277801801801802	1	-0.36750568339339	8.062353755778	0.75
0.75	an elderly person	an astronaut	79	random	1	196	1	strangle	impersonal	d	No	7.70481192293259	N/A	-1	0.364818181818182	0.0444359657055397	0.729636363636364	1	0	TRUE	0.270363636363636	0	-0.0739107562420358	7.77872267917463	0.75
0.75	a mentor	a judge	79	random	1	108	1	unidentified	personal	d	No	8.22147894726719	N/A	-1	0.384237704918033	0.0437741689615472	0.768475409836066	1	0	TRUE	0.231524590163934	0	0.248853489335668	7.97262545793152	0.75
0.75	a college student	a congressman	79	random	1	29	1	strangle	personal	d	No	7.97933889526233	N/A	-1	0.647366972477064	0.0457105945154951	0.705266055045872	1	0	TRUE	0.294733944954128	0	-0.171472157593928	8.15081105285626	0.75
0.75	an orphan	an adult	79	random	1	34	1	strangle	personal	k	Yes	9.29366997956319	N/A	-1	0.395822033898305	0.0466636599620169	0.79164406779661	1	1	TRUE	0.20835593220339	1	1.15425362027205	8.13941635929114	0.75
0.75	a soldier	an astronaut	79	random	1	170	1	unidentified	impersonal	k	Yes	8.31188955823036	N/A	-1	0.641306451612903	0.0437070652184035	0.717387096774194	1	1	TRUE	0.282612903225806	1	0.47637348570532	7.83551607252504	0.75
0.75	an adult	an elderly person	79	random	1	107	1	unidentified	personal	d	No	7.55590509361135	N/A	-1	0.3986	0.0445207984719687	0.7972	-1	1	FALSE	-0.2028	1	-0.418951354634918	7.97485644824626	0.75
0.75	a police officer	a celebrity	79	random	1	21	1	unidentified	personal	k	Yes	7.94378269245863	N/A	-1	0.358876033057851	0.0415559572461656	0.717752066115703	1	1	TRUE	0.282247933884297	1	-0.225293059313263	8.16907575177189	0.75
0.75	a homeless adult	a mentor	79	random	1	153	1	strangle	impersonal	d	No	7.56475701290573	N/A	-1	0.367046153846154	0.0408210885758222	0.734092307692308	-1	1	FALSE	-0.265907692307692	1	-0.308117209106131	7.87287422201186	0.75
0.75	an elderly person	an olympian	79	random	1	145	1	unidentified	impersonal	k	Yes	7.4301141385618	N/A	-1	0.616603603603604	0.0450610501014404	0.766792792792793	1	1	TRUE	0.233207207207207	1	-0.460401969187958	7.89051610774976	0.75
0.75	an adult	a celebrity	79	random	1	78	1	strangle	personal	k	Yes	8.07589363029886	N/A	-1	0.361099099099099	0.0450633262870011	0.722198198198198	1	1	TRUE	0.277801801801802	1	0.0360661813849532	8.0398274489139	0.75
0.75	a judge	a police officer	79	random	1	144	1	unidentified	personal	d	No	7.07749805356923	N/A	-1	0.386015625	0.0430285338608067	0.77203125	-1	1	FALSE	-0.22796875	1	-0.81522606772733	7.89272412129656	0.75
0.75	an addict	a celebrity	79	random	1	26	1	strangle	impersonal	d	No	7.43425738213314	N/A	-1	0.617743119266055	0.0462241766613936	0.76451376146789	-1	1	FALSE	-0.23548623853211	1	-0.723398142338916	8.15765552447205	0.75
0.75	an olympian	a congressman	79	random	1	2	1	strangle	personal	d	No	7.98786409608569	N/A	-1	0.3744	0.0479777291815489	0.7488	1	0	TRUE	0.2512	0	-0.224754517259424	8.21261861334511	0.75
0.75	a mentor	a homeless adult	79	random	1	104	1	unidentified	personal	d	No	8.11820704940578	N/A	-1	0.367046153846154	0.0408210885758222	0.734092307692308	1	0	TRUE	0.265907692307692	0	0.136653883710652	7.98155316569513	0.75
0.75	a rapist	a gang member	79	random	1	103	1	unidentified	impersonal	d	No	7.80628928926703	N/A	-1	0.643832	0.0417388297141392	0.712336	-1	1	FALSE	-0.287664	1	-0.177497364995093	7.98378665426213	0.75
0.75	a soldier	a mentor	79	random	1	176	1	strangle	impersonal	d	No	8.24617155985756	N/A	-1	0.367056910569106	0.043529553729685	0.734113821138211	1	0	TRUE	0.265886178861789	0	0.423798348971746	7.82237321088582	0.75
0.85	an astronaut	a homeless adult	79	random	1	27	1	unidentified	personal	d	No	8.91502927235991	N/A	-1	0.419412213740458	0.0433921379190235	0.838824427480916	1	0	TRUE	0.161175572519084	0	0.759655876799417	8.15537339556049	0.85
0.85	a college student	a judge	79	random	1	33	1	unidentified	personal	d	No	9.17709377818255	N/A	-1	0.559423728813559	0.0461732538643046	0.881152542372881	1	0	TRUE	0.118847457627119	0	1.03539975525839	8.14169402292416	0.85
0.85	a homeless adult	an astronaut	79	random	1	31	1	strangle	personal	d	No	7.49052940206071	N/A	-1	0.419412213740458	0.0433921379190235	0.838824427480916	-1	1	FALSE	-0.161175572519084	1	-0.655721860392711	8.14625126245342	0.85
0.85	a college student	an elderly person	79	random	1	92	1	strangle	impersonal	d	No	7.71020519443253	N/A	-1	0.413721739130435	0.0448737329936161	0.82744347826087	-1	1	FALSE	-0.17255652173913	1	-0.298191122571335	8.00839631700387	0.85
0.85	a celebrity	a judge	79	random	1	11	1	strangle	impersonal	d	No	8.58709231879591	N/A	-1	0.419758928571429	0.0477168389036276	0.839517857142857	-1	1	FALSE	-0.160482142857143	1	0.395128127147695	8.19196419164821	0.85
0.85	an olympian	a college student	79	random	1	109	1	strangle	impersonal	d	No	7.54380286750151	N/A	-1	0.559589285714286	0.048694260608621	0.880821428571429	-1	1	FALSE	-0.119178571428571	1	-0.426592224241594	7.9703950917431	0.85
0.85	a college student	a billionaire	79	random	1	183	1	strangle	impersonal	k	Yes	8.16990264735914	N/A	-1	0.410381818181818	0.0476239394617643	0.820763636363636	1	1	TRUE	0.179236363636364	1	0.362834915080408	7.80706773227874	0.85
0.85	a congressman	an addict	79	random	1	8	1	unidentified	impersonal	d	No	8.65973387819835	N/A	-1	0.569805555555556	0.0469657224106123	0.860388888888889	1	0	TRUE	0.139611111111111	0	0.460890657454289	8.19884322074406	0.85
0.85	a police officer	a billionaire	79	random	1	28	1	unidentified	impersonal	k	Yes	7.64826303090192	N/A	-1	0.42004132231405	0.0441765864546982	0.840082644628099	1	1	TRUE	0.159917355371901	1	-0.504828874179508	8.15309190508143	0.85
0.85	an olympian	a celebrity	79	random	1	105	1	unidentified	impersonal	d	No	8.13827263853019	N/A	-1	0.420575471698113	0.0461294211031207	0.841150943396226	1	0	TRUE	0.158849056603774	0	0.158952336576843	7.97932030195334	0.85
0.85	an elderly person	a police officer	79	random	1	118	1	strangle	impersonal	d	No	8.14757773620177	N/A	-1	0.41612	0.0442128077865721	0.83224	1	0	TRUE	0.16776	0	0.197227883263286	7.95034985293848	0.85
0.85	a billionaire	a congressman	79	random	1	36	1	unidentified	personal	d	No	8.41913925094085	N/A	-1	0.576893203883495	0.0489141042250305	0.84621359223301	1	0	TRUE	0.15378640776699	0	0.28427630754404	8.13486294339681	0.85
0.85	a billionaire	a mentor	79	random	1	100	1	unidentified	personal	d	No	7.30921236569276	N/A	-1	0.4162	0.0457691544167611	0.8324	-1	1	FALSE	-0.1676	1	-0.681278504970321	7.99049087066308	0.85
0.85	a nun	a college student	79	random	1	96	1	strangle	impersonal	d	No	8.12888014212564	N/A	-1	0.579628099173554	0.0438818601118943	0.840743801652893	-1	1	FALSE	-0.159256198347107	1	0.129441558095427	7.99943858403021	0.85
0.85	an orphan	a police officer	79	random	1	59	1	strangle	impersonal	k	Yes	8.64927353177345	N/A	-1	0.4134296875	0.0432696242523729	0.826859375	1	1	TRUE	0.173140625	1	0.5665921414446	8.08268139032885	0.85
0.85	a celebrity	a nun	79	random	1	192	1	strangle	impersonal	d	No	7.57865685059476	N/A	-1	0.440539130434783	0.0454318102235983	0.881078260869565	-1	1	FALSE	-0.118921739130435	1	-0.208776404941474	7.78743325553624	0.85
0.85	an astronaut	a nun	79	random	1	174	1	unidentified	personal	d	No	7.58171964012531	N/A	-1	0.415456692913386	0.0436746013597216	0.830913385826772	1	0	TRUE	0.169086614173228	0	-0.245032073355781	7.82675171348109	0.85
0.85	a nun	an astronaut	79	random	1	133	1	unidentified	personal	d	No	7.22983877815125	N/A	-1	0.415456692913386	0.0436746013597216	0.830913385826772	-1	1	FALSE	-0.169086614173228	1	-0.687214309730987	7.91705308788224	0.85
0.85	a police officer	an orphan	79	random	1	119	1	unidentified	impersonal	d	No	7.9373746961633	N/A	-1	0.4134296875	0.0432696242523729	0.826859375	-1	1	FALSE	-0.173140625	1	-0.0107510222549241	7.94812571841822	0.85
0.85	an orphan	a mentor	79	random	1	32	1	unidentified	personal	d	No	8.79618763547045	N/A	-1	0.408352459016393	0.0455601569876457	0.816704918032787	1	0	TRUE	0.183295081967213	0	0.652215311551652	8.1439723239188	0.85
0.85	a police officer	an olympian	79	random	1	165	1	strangle	personal	d	No	7.1929342212158	N/A	-1	0.556885245901639	0.0460170664608795	0.886229508196721	1	0	TRUE	0.113770491803279	0	-0.653551102743224	7.84648532395902	0.85
0.85	an olympian	a mentor	79	random	1	181	1	unidentified	personal	d	No	8.4767877767812	N/A	-1	0.558853448275862	0.0462987337766902	0.882293103448276	-1	1	FALSE	-0.117706896551724	1	0.665350109010294	7.8114376677709	0.85
0.95	an adult	an olympian	79	random	1	123	1	strangle	personal	d	No	7.56682847920833	N/A	-1	0.538241071428571	0.0481381500213955	0.923517857142857	1	0	TRUE	0.0764821428571431	0	-0.372406921472307	7.93923540068064	0.95
0.95	a homeless adult	a judge	79	random	1	138	1	strangle	impersonal	d	No	8.03300949859667	N/A	-1	0.451047244094488	0.0437782691307995	0.902094488188976	-1	1	FALSE	-0.097905511811024	1	0.127024314667811	7.90598518392886	0.95
0.95	a billionaire	a nun	79	random	1	84	1	strangle	impersonal	d	No	7.89803969076462	N/A	-1	0.50144347826087	0.0469497544202379	0.997113043478261	1	0	TRUE	0.00288695652173898	0	-0.128302195898343	8.02634188666296	0.95
0.95	a congressman	a celebrity	79	random	1	112	1	strangle	personal	d	No	8.13064796816058	N/A	-1	0.520631067961165	0.050282638048839	0.95873786407767	-1	1	FALSE	-0.04126213592233	1	0.166940231970613	7.96370773618997	0.95
0.95	a celebrity	a billionaire	79	random	1	57	1	strangle	personal	k	Yes	7.58731050602262	N/A	-1	0.536	0.0494399918438418	0.928	-1	0	FALSE	-0.072	0	-0.499895092048589	8.0872055980712	0.95
0.95	a soldier	an orphan	79	random	1	175	1	strangle	impersonal	d	No	7.42297125104942	N/A	-1	0.51975	0.0455407059710847	0.9605	1	0	TRUE	0.0395	0	-0.401590904866342	7.82456215591576	0.95
0.95	a college student	a police officer	79	random	1	182	1	unidentified	impersonal	d	No	8.93918760147561	N/A	-1	0.473634920634921	0.0440580805059561	0.947269841269841	-1	1	FALSE	-0.052730158730159	1	1.12993520711923	7.80925239435638	0.95
0.95	a homeless adult	an olympian	79	random	1	147	1	unidentified	impersonal	d	No	8.03365842788615	N/A	-1	0.455826446280992	0.0446986183182352	0.911652892561983	-1	1	FALSE	-0.088347107438017	1	0.147556494307306	7.88610193357884	0.95
0.95	an olympian	a judge	79	random	1	66	1	unidentified	impersonal	d	No	8.11312710422178	N/A	-1	0.462929824561404	0.0478586480340864	0.925859649122807	1	0	TRUE	0.074140350877193	0	0.0462605189108505	8.06686658531093	0.95
0.95	a billionaire	an astronaut	79	random	1	50	1	unidentified	personal	d	No	8.1656479252975	N/A	-1	0.456103448275862	0.0459782540993934	0.912206896551724	-1	1	FALSE	-0.087793103448276	1	0.0625876482972867	8.10306027700022	0.95
0.95	a police officer	a college student	79	random	1	143	1	strangle	personal	d	No	7.86978390253015	N/A	-1	0.473634920634921	0.0440580805059561	0.947269841269841	1	0	TRUE	0.052730158730159	0	-0.0251488501845643	7.89493275271471	0.95
0.95	a thief	an assassin	79	random	1	65	1	unidentified	impersonal	k	Yes	8.47512041499433	N/A	-1	0.494268292682927	0.0435287017682407	0.988536585365854	-1	0	FALSE	-0.011463414634146	0	0.405996467749482	8.06912394724485	0.95
0.95	a judge	a homeless adult	79	random	1	148	1	strangle	personal	d	No	7.75190533307861	N/A	-1	0.451047244094488	0.0437782691307995	0.902094488188976	1	0	TRUE	0.097905511811024	0	-0.131990439530562	7.88389577260917	0.95
0.95	a nun	a homeless adult	79	random	1	122	1	unidentified	impersonal	d	No	7.87549929244521	N/A	-1	0.472969230769231	0.0429675844550938	0.945938461538462	1	0	TRUE	0.0540615384615381	0	-0.0659577549663366	7.94145704741154	0.95
0.95	a homeless adult	a billionaire	79	random	1	69	1	strangle	impersonal	k	Yes	8.08856180527623	N/A	-1	0.494091666666667	0.045396398378765	0.988183333333333	1	1	TRUE	0.011816666666667	1	0.0284635174505237	8.06009828782571	0.95
0.95	an adult	a college student	79	random	1	13	1	unidentified	impersonal	k	Yes	8.81045964216192	N/A	-1	0.487112068965517	0.0479491034472653	0.974224137931034	1	1	TRUE	0.025775862068966	1	0.623078263126981	8.18738137903494	0.95
0.95	a college student	an astronaut	79	random	1	126	1	unidentified	personal	d	No	7.68386398025643	N/A	-1	0.53377868852459	0.0433236038162571	0.93244262295082	1	0	TRUE	0.06755737704918	0	-0.248710208610586	7.93257418886702	0.95
0.95	a soldier	an elderly person	79	random	1	164	1	strangle	personal	d	No	8.31630024903685	N/A	-1	0.515145299145299	0.0465444626362203	0.969709401709402	1	0	TRUE	0.030290598290598	0	0.467619232723422	7.84868101631343	0.95
0.95	an adult	a police officer	79	random	1	106	1	strangle	personal	d	No	8.32044811395656	N/A	-1	0.484629921259842	0.0448488192419571	0.969259842519685	1	0	TRUE	0.030740157480315	0	0.343360051094588	7.97708806286197	0.95
0.95	a mentor	a college student	79	random	1	5	1	strangle	impersonal	d	No	7.47477218239787	N/A	-1	0.479666666666667	0.0456956025027364	0.959333333333333	1	0	TRUE	0.040666666666667	0	-0.730955843961584	8.20572802635945	0.95
0.95	an astronaut	a police officer	79	random	1	53	1	strangle	personal	d	No	7.52725591937378	N/A	-1	0.531371212121212	0.0439202738766455	0.937257575757576	-1	1	FALSE	-0.062742424242424	1	-0.569005692752607	8.09626161212639	0.95
0.95	an olympian	an astronaut	79	random	1	58	1	strangle	personal	d	No	7.29844510150815	N/A	-1	0.507847457627119	0.0468185212617855	0.984305084745763	-1	1	FALSE	-0.0156949152542371	1	-0.786498076232398	8.08494317774054	0.95
0.95	a convict	a thief	79	random	1	116	1	strangle	personal	d	No	7.85476918349913	N/A	-1	0.5328359375	0.0453215538129195	0.934328125	1	0	TRUE	0.065671875	0	-0.100030805801544	7.95479998930068	0.95
0.95	a convict	a gang member	79	random	1	93	1	strangle	personal	k	Yes	7.41997992366183	N/A	-1	0.5054140625	0.042996468360859	0.989171875	1	1	TRUE	0.010828125	1	-0.586176020147132	8.00615594380897	0.95
0.95	an astronaut	a mentor	79	random	1	120	1	unidentified	impersonal	d	No	8.02617019494643	N/A	-1	0.527666666666667	0.0465503126503863	0.944666666666667	-1	1	FALSE	-0.055333333333333	1	0.0802679888400828	7.94590220610634	0.95
0.95	a nun	a judge	79	random	1	37	1	strangle	personal	d	No	8.84476882752969	N/A	-1	0.481723577235772	0.045062377150327	0.963447154471545	1	0	TRUE	0.0365528455284549	0	0.712181636750657	8.13258719077904	0.95
0.95	an orphan	an elderly person	79	random	1	190	1	strangle	personal	d	No	8.29654652030061	N/A	-1	0.472913793103448	0.0461738531204516	0.945827586206897	1	0	TRUE	0.054172413793103	0	0.504754319492831	7.79179220080778	0.95
0.05	a rapist	an elderly person	35	random	1	88	1	unidentified	impersonal	d	No	7.64873978895624	N/A	-1	0.0392926829268293	0.0180077483800635	0.0785853658536585	-1	1	FALSE	-0.921414634146342	1	-0.121395719247155	7.7701355082034	0.05
0.05	a college student	a terrorist	35	random	1	73	1	unidentified	personal	k	Yes	7.68708015578313	N/A	-1	0.954008547008547	0.0198968379250805	0.091982905982906	1	1	TRUE	0.908017094017094	1	-0.0830664235888641	7.770146579372	0.05
0.05	a pedophile	a police officer	35	random	1	28	1	unidentified	impersonal	d	No	7.67740043051481	N/A	-1	0.0427348484848485	0.01822580995369	0.085469696969697	-1	1	FALSE	-0.914530303030303	1	-0.109904187535796	7.7873046180506	0.05
0.05	a pedophile	a police officer	35	random	1	136	1	unidentified	personal	d	No	7.10987946307227	N/A	-1	0.0427348484848485	0.01822580995369	0.085469696969697	-1	1	FALSE	-0.914530303030303	1	-0.660254962377053	7.77013442544932	0.05
0.05	a pedophile	a mentor	35	random	1	133	1	unidentified	personal	d	No	7.1777824161952	N/A	-1	0.961666666666667	0.0173950872145792	0.0766666666666667	-1	1	FALSE	-0.923333333333333	1	-0.592352009548122	7.77013442574332	0.05
0.05	an adult	a rapist	35	random	1	135	1	unidentified	impersonal	k	Yes	7.84815308619953	N/A	-1	0.04288	0.0186793607631128	0.0857600000000001	1	1	TRUE	0.91424	1	0.0780186606675093	7.77013442553202	0.05
0.05	an adult	a rapist	35	random	1	183	1	unidentified	personal	k	Yes	7.52456122628536	N/A	-1	0.04288	0.0186793607631128	0.0857600000000001	1	1	TRUE	0.91424	1	-0.24557319869141	7.77013442497677	0.05
0.05	an adult	a terrorist	35	random	1	101	1	unidentified	impersonal	k	Yes	7.5923661285198	N/A	-1	0.0409230769230769	0.018282671881899	0.0818461538461539	1	1	TRUE	0.918153846153846	1	-0.177768429719044	7.77013455823884	0.05
0.05	an orphan	a terrorist	35	random	1	15	1	strangle	personal	k	Yes	7.78447323573647	N/A	-1	0.029864406779661	0.0160637756380309	0.059728813559322	1	1	TRUE	0.940271186440678	1	-0.125229640334146	7.90970287607061	0.05
0.05	an orphan	a pedophile	35	random	1	125	1	strangle	personal	k	Yes	7.42833319419081	N/A	-1	0.0286747967479675	0.0146488578211018	0.0573495934959349	1	1	TRUE	0.942650406504065	1	-0.341801233569822	7.77013442776063	0.05
0.05	a mentor	a pedophile	35	random	1	120	1	unidentified	impersonal	k	Yes	7.28892769452126	N/A	-1	0.961666666666667	0.0173950872145792	0.0766666666666667	1	1	TRUE	0.923333333333333	1	-0.481206736688164	7.77013443120942	0.05
0.15	a rapist	a college student	35	random	1	69	1	strangle	impersonal	d	No	8.02322468471667	N/A	-1	0.949314516129032	0.0189770116563248	0.101370967741935	-1	1	FALSE	-0.898629032258065	1	0.253067099818806	7.77015758489786	0.15
0.15	a mentor	an assassin	35	random	1	99	1	strangle	personal	k	Yes	7.82404601085629	N/A	-1	0.900732283464567	0.0279379356743691	0.198535433070866	1	1	TRUE	0.801464566929134	1	0.0539114019257783	7.77013460893051	0.15
0.15	a billionaire	a pedophile	35	random	1	65	1	unidentified	personal	k	Yes	7.4759059693674	N/A	-1	0.911060344827586	0.0267549087908591	0.177879310344828	1	1	TRUE	0.822120689655172	1	-0.294272586307163	7.77017855567456	0.15
0.15	a soldier	a gang member	35	random	1	151	1	unidentified	impersonal	k	Yes	7.80098207125774	N/A	-1	0.0983361344537815	0.0267793798426612	0.196672268907563	1	1	TRUE	0.803327731092437	1	0.0308476462390761	7.77013442501866	0.15
0.15	an assassin	an orphan	35	random	1	108	1	strangle	personal	d	No	8.71407489954152	N/A	-1	0.0619596774193548	0.0219733054731573	0.12391935483871	-1	1	FALSE	-0.87608064516129	1	0.943940431442802	7.77013446809872	0.15
0.15	an assassin	a mentor	35	random	1	132	1	unidentified	personal	d	No	8.29704514908183	N/A	-1	0.900732283464567	0.0279379356743691	0.198535433070866	-1	1	FALSE	-0.801464566929134	1	0.526910723204395	7.77013442587743	0.15
0.15	a pedophile	a homeless adult	35	random	1	173	1	unidentified	personal	d	No	7.54168309988211	N/A	-1	0.924580152671756	0.0228070940929906	0.150839694656488	-1	1	FALSE	-0.849160305343512	1	-0.228451325095631	7.77013442497774	0.15
0.15	a college student	an assassin	35	random	1	175	1	strangle	impersonal	k	Yes	7.72929567431048	N/A	-1	0.902647540983607	0.0261808886903617	0.194704918032787	1	1	TRUE	0.805295081967213	1	-0.0408387506669259	7.77013442497741	0.15
0.15	a rapist	an olympian	35	random	1	103	1	strangle	personal	d	No	7.13169851046691	N/A	-1	0.0517416666666667	0.0204622761786923	0.103483333333333	-1	1	FALSE	-0.896516666666667	1	-0.638436011049214	7.77013452151613	0.15
0.15	an assassin	an elderly person	35	random	1	105	1	strangle	impersonal	d	No	8.43468076984177	N/A	-1	0.0712727272727273	0.0231500429987852	0.142545454545455	-1	1	FALSE	-0.857454545454545	1	0.664546274928789	7.77013449491298	0.15
0.15	a thief	an orphan	35	random	1	187	1	strangle	impersonal	d	No	7.82803803212583	N/A	-1	0.0788474576271186	0.0245323452626974	0.157694915254237	-1	1	FALSE	-0.842305084745763	1	0.057903607149175	7.77013442497665	0.15
0.15	a rapist	an olympian	35	random	1	34	1	strangle	impersonal	d	No	6.7093043402583	N/A	-1	0.0517416666666667	0.0204622761786923	0.103483333333333	-1	1	FALSE	-0.896516666666667	1	-1.06735792625349	7.77666226651179	0.15
0.15	an assassin	a soldier	35	random	1	143	1	strangle	personal	d	No	7.49720722320332	N/A	-1	0.925896	0.0230590742421482	0.148208	-1	1	FALSE	-0.851792	1	-0.272927201926202	7.77013442512952	0.15
0.15	a judge	a pedophile	35	random	1	51	1	strangle	personal	k	Yes	7.40062057737113	N/A	-1	0.948895161290323	0.0200896090833428	0.102209677419355	1	1	TRUE	0.897790322580645	1	-0.369935305124374	7.77055588249551	0.15
0.15	a rapist	a judge	35	random	1	43	1	strangle	impersonal	d	No	7.74932246466036	N/A	-1	0.929198412698413	0.0221520285232864	0.141603174603175	-1	1	FALSE	-0.858396825396825	1	-0.0223422062710625	7.77166467093142	0.15
0.15	an assassin	an olympian	35	random	1	138	1	unidentified	personal	d	No	7.67600993202889	N/A	-1	0.0995338983050847	0.0275945757922735	0.199067796610169	-1	1	FALSE	-0.800932203389831	1	-0.0941244932901499	7.77013442531904	0.15
0.15	a police officer	a rapist	35	random	1	137	1	strangle	impersonal	k	Yes	7.57916796739608	N/A	-1	0.93637037037037	0.0210349033398431	0.127259259259259	1	1	TRUE	0.872740740740741	1	-0.190966457982866	7.77013442537894	0.15
0.15	an orphan	a thief	35	random	1	97	1	unidentified	personal	k	Yes	7.14913159855741	N/A	-1	0.0788474576271186	0.0245323452626974	0.157694915254237	1	1	TRUE	0.842305084745763	1	-0.621003080347394	7.7701346789048	0.15
0.15	a terrorist	an olympian	35	random	1	129	1	strangle	personal	d	No	8.22013395715186	N/A	-1	0.0506371681415929	0.0198943284222663	0.101274336283186	-1	1	FALSE	-0.898725663716814	1	0.449999530714226	7.77013442643763	0.15
0.15	a nun	a pedophile	35	random	1	47	1	unidentified	impersonal	k	Yes	7.40488757561612	N/A	-1	0.944614173228346	0.0199964242778091	0.110771653543307	1	1	TRUE	0.889228346456693	1	-0.3660499269803	7.77093750259642	0.15
0.15	a terrorist	an olympian	35	random	1	21	1	strangle	personal	d	No	7.65491704784832	N/A	-1	0.0506371681415929	0.0198943284222663	0.101274336283186	-1	1	FALSE	-0.898725663716814	1	-0.168279141089348	7.82319618893767	0.15
0.15	a homeless adult	a rapist	35	random	1	150	1	unidentified	personal	k	Yes	7.71154897962915	N/A	-1	0.910634328358209	0.024718673677556	0.178731343283582	1	1	TRUE	0.821268656716418	1	-0.0585854453968873	7.77013442502603	0.15
0.25	an astronaut	a gang member	35	random	1	67	1	unidentified	personal	k	Yes	7.37148929521428	N/A	-1	0.132577235772358	0.030749614149	0.265154471544715	1	1	TRUE	0.734845528455285	1	-0.398677099490039	7.77016639470432	0.25
0.25	a gang member	an orphan	35	random	1	148	1	unidentified	personal	d	No	7.22329567956231	N/A	-1	0.101254237288136	0.0277651098253917	0.202508474576271	-1	1	FALSE	-0.797491525423729	1	-0.546838745482551	7.77013442504487	0.25
0.25	a police officer	a thief	35	random	1	38	1	unidentified	impersonal	k	Yes	7.76004068088038	N/A	-1	0.854661417322835	0.0310637653465034	0.290677165354331	1	1	TRUE	0.709322834645669	1	-0.0135195747127526	7.77356025559313	0.25
0.25	a billionaire	a terrorist	35	random	1	53	1	strangle	personal	k	Yes	7.83241092718792	N/A	-1	0.894315315315315	0.0286633224386688	0.211369369369369	1	1	TRUE	0.788630630630631	1	0.0619711845355466	7.77043974265237	0.25
0.25	an olympian	a gang member	35	random	1	122	1	strangle	impersonal	k	Yes	7.83518375526675	N/A	-1	0.146115044247788	0.033726456015061	0.292230088495575	1	1	TRUE	0.707769911504425	1	0.0650493257749085	7.77013442949184	0.25
0.25	a thief	a mentor	35	random	1	117	1	unidentified	impersonal	d	No	7.50494206839617	N/A	-1	0.874157024793388	0.0289866802663697	0.251685950413223	-1	1	FALSE	-0.748314049586777	1	-0.26519236668899	7.77013443508516	0.25
0.25	a terrorist	a billionaire	35	random	1	41	1	unidentified	impersonal	d	No	7.76514490293613	N/A	-1	0.894315315315315	0.0286633224386688	0.211369369369369	-1	1	FALSE	-0.788630630630631	1	-0.00710185851679856	7.77224676145293	0.25
0.25	a thief	a mentor	35	random	1	85	1	strangle	personal	d	No	7.64587582518481	N/A	-1	0.874157024793388	0.0289866802663697	0.251685950413223	-1	1	FALSE	-0.748314049586777	1	-0.124260356591267	7.77013618177608	0.25
0.25	a college student	a thief	35	random	1	63	1	unidentified	personal	k	Yes	7.9229859587112	N/A	-1	0.87442735042735	0.0311801202848037	0.251145299145299	1	1	TRUE	0.748854700854701	1	0.152790616152833	7.77019534255836	0.25
0.25	a rapist	a congressman	35	random	1	116	1	unidentified	personal	d	No	7.00215595440362	N/A	-1	0.855307692307692	0.0313378168142828	0.289384615384615	-1	1	FALSE	-0.710615384615385	1	-0.767978482449541	7.77013443685316	0.25
0.25	an adult	an assassin	35	random	1	176	1	strangle	personal	k	Yes	7.30854279753919	N/A	-1	0.891219512195122	0.0287833976459904	0.217560975609756	1	1	TRUE	0.782439024390244	1	-0.461591627438087	7.77013442497728	0.25
0.25	a gang member	an orphan	35	random	1	4	1	unidentified	personal	d	No	8.20385137218388	N/A	-1	0.101254237288136	0.0277651098253917	0.202508474576271	-1	1	FALSE	-0.797491525423729	1	-0.38814236510682	8.5919937372907	0.25
0.25	a billionaire	a rapist	35	random	1	104	1	unidentified	personal	k	Yes	7.52023455647463	N/A	-1	0.89190756302521	0.0286354236878874	0.21618487394958	1	1	TRUE	0.78381512605042	1	-0.249899950670248	7.77013450714488	0.25
0.25	an addict	a rapist	35	random	1	86	1	strangle	impersonal	k	Yes	7.68063742756094	N/A	-1	0.141479674796748	0.0313353744902551	0.282959349593496	1	1	TRUE	0.717040650406504	1	-0.0894984926913169	7.77013592025225	0.25
0.25	a rapist	a celebrity	35	random	1	14	1	strangle	impersonal	d	No	7.38647084882989	N/A	-1	0.874705882352941	0.0295773111610786	0.250588235294118	-1	1	FALSE	-0.749411764705882	1	-0.547642558940885	7.93411340777078	0.25
0.25	a thief	a police officer	35	random	1	166	1	strangle	impersonal	d	No	7.59186171488993	N/A	-1	0.854661417322835	0.0310637653465034	0.290677165354331	-1	1	FALSE	-0.709322834645669	1	-0.178272710090349	7.77013442498028	0.25
0.25	an assassin	a nun	35	random	1	163	1	unidentified	impersonal	d	No	8.66613030419061	N/A	-1	0.856574803149606	0.0288044337409113	0.286850393700787	-1	1	FALSE	-0.713149606299213	1	0.89599587920799	7.77013442498262	0.25
0.25	a college student	a gang member	35	random	1	154	1	unidentified	impersonal	k	Yes	7.18690102041163	N/A	-1	0.858273504273504	0.0315045829003627	0.283452991452992	1	1	TRUE	0.716547008547008	1	-0.583233404590877	7.77013442500251	0.25
0.25	an assassin	a police officer	35	random	1	149	1	strangle	personal	d	No	7.40062057737113	N/A	-1	0.883398496240602	0.0273431689265252	0.233203007518797	-1	1	FALSE	-0.766796992481203	1	-0.369513847663558	7.77013442503469	0.25
0.25	an addict	a rapist	35	random	1	162	1	strangle	impersonal	k	Yes	7.60140233458373	N/A	-1	0.141479674796748	0.0313353744902551	0.282959349593496	1	1	TRUE	0.717040650406504	1	-0.16873209039995	7.77013442498368	0.25
0.25	an elderly person	a gang member	35	random	1	75	1	strangle	personal	k	Yes	7.87359778968554	N/A	-1	0.111577586206897	0.0281335799456093	0.223155172413793	1	1	TRUE	0.776844827586207	1	0.10345455966554	7.77014323002	0.25
0.25	a convict	a soldier	35	random	1	123	1	strangle	personal	d	No	7.34407285057307	N/A	-1	0.124821705426357	0.0296872529638241	0.249643410852713	-1	1	FALSE	-0.750356589147287	1	-0.426061578246608	7.77013442881967	0.25
0.25	an astronaut	a thief	35	random	1	118	1	strangle	impersonal	k	Yes	7.34083555412327	N/A	-1	0.117528455284553	0.028543869533805	0.235056910569106	1	1	TRUE	0.764943089430894	1	-0.429298879457077	7.77013443358035	0.25
0.25	a celebrity	a terrorist	35	random	1	134	1	strangle	impersonal	k	Yes	7.13009851012558	N/A	-1	0.869756756756757	0.0320026196194734	0.260486486486486	1	1	TRUE	0.739513513513514	1	-0.640035915503594	7.77013442562917	0.25
0.25	a celebrity	a rapist	35	random	1	107	1	unidentified	impersonal	k	Yes	7.46851327149634	N/A	-1	0.874705882352941	0.0295773111610786	0.250588235294118	1	1	TRUE	0.749411764705882	1	-0.301621204144458	7.77013447564079	0.25
0.25	an olympian	a thief	35	random	1	90	1	strangle	personal	k	Yes	7.39141523467536	N/A	-1	0.130849557522124	0.0315607070630143	0.261699115044248	1	1	TRUE	0.738300884955752	1	-0.378719975026309	7.77013520970167	0.25
0.35	a convict	a police officer	35	random	1	31	1	strangle	impersonal	d	No	8.09559870137819	N/A	-1	0.174080291970803	0.0319449219915133	0.348160583941606	-1	1	FALSE	-0.651839416058394	1	0.314877289128724	7.78072141224947	0.35
0.35	a billionaire	an assassin	35	random	1	26	1	strangle	personal	k	Yes	8.87472776576685	N/A	-1	0.829521367521368	0.0366999445759961	0.340957264957265	1	1	TRUE	0.659042735042735	1	1.08089177502483	7.79383599074203	0.35
0.35	a soldier	an addict	35	random	1	119	1	strangle	impersonal	k	Yes	7.81480342948936	N/A	-1	0.81148717948718	0.0363332669184672	0.377025641025641	1	1	TRUE	0.622974358974359	1	0.0446689971898051	7.77013443229955	0.35
0.35	an adult	a convict	35	random	1	126	1	strangle	personal	k	Yes	7.2086003379602	N/A	-1	0.163779527559055	0.0324434073075244	0.32755905511811	1	1	TRUE	0.67244094488189	1	-0.561534089385978	7.77013442734618	0.35
0.35	a congressman	a terrorist	35	random	1	146	1	unidentified	personal	k	Yes	7.25770767716004	N/A	-1	0.844918181818182	0.0347030985482637	0.310163636363636	1	1	TRUE	0.689836363636364	1	-0.512426747910818	7.77013442507086	0.35
0.35	a convict	a college student	35	random	1	20	1	strangle	impersonal	d	No	7.70345904786717	N/A	-1	0.810417322834646	0.0339347649336858	0.379165354330709	-1	1	FALSE	-0.620834645669291	1	-0.129017647238517	7.83247669510569	0.35
0.35	an addict	an orphan	35	random	1	80	1	unidentified	personal	d	No	7.57250298502038	N/A	-1	0.167077586206897	0.0340002823946035	0.334155172413793	-1	1	FALSE	-0.665844827586207	1	-0.197635372982513	7.7701383580029	0.35
0.35	a thief	a nun	35	random	1	145	1	strangle	personal	d	No	7.79646924308606	N/A	-1	0.82433606557377	0.0348792849992708	0.351327868852459	-1	1	FALSE	-0.648672131147541	1	0.0263348179986984	7.77013442508736	0.35
0.35	a billionaire	a thief	35	random	1	96	1	unidentified	impersonal	k	Yes	7.32118855673948	N/A	-1	0.801189189189189	0.0387930877058685	0.397621621621622	1	1	TRUE	0.602378378378378	1	-0.448946166577397	7.77013472331687	0.35
0.35	a homeless adult	a thief	35	random	1	165	1	unidentified	personal	k	Yes	7.99699040583765	N/A	-1	0.812293650793651	0.0340138088006348	0.375412698412698	1	1	TRUE	0.624587301587302	1	0.22685598085671	7.77013442498094	0.35
0.35	a mentor	a convict	35	random	1	158	1	unidentified	personal	k	Yes	7.73587031995257	N/A	-1	0.158511450381679	0.0320277711300361	0.317022900763359	1	1	TRUE	0.682977099236641	1	-0.0342641050375958	7.77013442499016	0.35
0.35	a thief	a homeless adult	35	random	1	141	1	strangle	personal	d	No	7.75833346749091	N/A	-1	0.812293650793651	0.0340138088006348	0.375412698412698	-1	1	FALSE	-0.624587301587302	1	-0.0118009576968054	7.77013442518772	0.35
0.35	a convict	an astronaut	35	random	1	49	1	unidentified	impersonal	d	No	7.61283103040736	N/A	-1	0.175218045112782	0.0339296475350126	0.350436090225564	-1	1	FALSE	-0.649563909774436	1	-0.157885170386158	7.77071620079351	0.35
0.35	a billionaire	an assassin	35	random	1	37	1	strangle	impersonal	k	Yes	7.65964295456468	N/A	-1	0.829521367521368	0.0366999445759961	0.340957264957265	1	1	TRUE	0.659042735042735	1	-0.114516479039028	7.77415943360371	0.35
0.35	a convict	an astronaut	35	random	1	170	1	unidentified	impersonal	d	No	7.80139132029149	N/A	-1	0.175218045112782	0.0339296475350126	0.350436090225564	-1	1	FALSE	-0.649563909774436	1	0.0312568953129873	7.7701344249785	0.35
0.35	an addict	an elderly person	35	random	1	79	1	strangle	personal	k	Yes	7.59337419312129	N/A	-1	0.179964912280702	0.0371848237841866	0.359929824561404	-1	0	FALSE	-0.640070175438596	0	-0.176764852768191	7.77013904588948	0.35
0.35	a judge	a thief	35	random	1	112	1	strangle	impersonal	k	Yes	7.34987370473834	N/A	-1	0.827621848739496	0.0340561759999284	0.344756302521008	1	1	TRUE	0.655243697478992	1	-0.420260742868845	7.77013444760718	0.35
0.35	an addict	an orphan	35	random	1	106	1	strangle	impersonal	d	No	7.50384074669895	N/A	-1	0.167077586206897	0.0340002823946035	0.334155172413793	-1	1	FALSE	-0.665844827586207	1	-0.266293737803028	7.77013448450198	0.35
0.45	a billionaire	a gang member	35	random	1	115	1	strangle	personal	k	Yes	7.10167597161944	N/A	-1	0.777558558558559	0.0391994927445522	0.444882882882883	1	1	TRUE	0.555117117117117	1	-0.668458467310943	7.77013443893039	0.45
0.45	a rapist	a thief	35	random	1	185	1	unidentified	impersonal	d	No	7.78155595923534	N/A	-1	0.230256	0.0376549646177016	0.460512	-1	1	FALSE	-0.539488	1	0.0114215342586368	7.7701344249767	0.45
0.45	a celebrity	an assassin	35	random	1	182	1	unidentified	impersonal	k	Yes	8.78660945506113	N/A	-1	0.797811965811966	0.0356821925988365	0.404376068376068	1	1	TRUE	0.595623931623932	1	1.01647503008431	7.77013442497681	0.45
0.45	a homeless adult	a convict	35	random	1	24	1	unidentified	impersonal	k	Yes	7.85902697975154	N/A	-1	0.209544117647059	0.0346042756049914	0.419088235294118	1	1	TRUE	0.580911764705882	1	0.0561751463386146	7.80285183341292	0.45
0.45	an assassin	a pedophile	35	random	1	114	1	unidentified	personal	k	Yes	7.67229245562876	N/A	-1	0.2419140625	0.0371898268010869	0.483828125	1	1	TRUE	0.516171875	1	-0.0978419857421615	7.77013444137092	0.45
0.45	a judge	a convict	35	random	1	35	1	unidentified	impersonal	k	Yes	7.7376162828579	N/A	-1	0.201325581395349	0.0345531512140384	0.402651162790698	1	1	TRUE	0.597348837209302	1	-0.0380742244685601	7.77569050732646	0.45
0.45	a pedophile	an assassin	35	random	1	186	1	unidentified	personal	d	No	8.17751582384608	N/A	-1	0.2419140625	0.0371898268010869	0.483828125	-1	1	FALSE	-0.516171875	1	0.407381398869399	7.77013442497668	0.45
0.45	an assassin	a congressman	35	random	1	124	1	unidentified	impersonal	d	No	7.42595365707754	N/A	-1	0.767817391304348	0.0394308863049614	0.464365217391304	-1	1	FALSE	-0.535634782608696	1	-0.344180771170028	7.77013442824757	0.45
0.55	a congressman	an orphan	35	random	1	172	1	strangle	personal	d	No	7.22548147278229	N/A	-1	0.258554545454545	0.0403294277635509	0.517109090909091	-1	1	FALSE	-0.482890909090909	1	-0.54465295219566	7.77013442497795	0.55
0.55	a rapist	an assassin	35	random	1	110	1	strangle	personal	d	No	7.31455283232408	N/A	-1	0.268763358778626	0.038158566577316	0.537526717557252	-1	1	FALSE	-0.462473282442748	1	-0.455581623891582	7.77013445621566	0.55
0.55	a soldier	a judge	35	random	1	25	1	unidentified	impersonal	k	Yes	7.24279792279376	N/A	-1	0.293983333333333	0.0429658288799393	0.587966666666667	1	1	TRUE	0.412033333333333	1	-0.55518347343158	7.79798139622534	0.55
0.55	a soldier	a celebrity	35	random	1	192	1	strangle	personal	d	No	9.05356959602623	N/A	-1	0.270929203539823	0.0404238262219043	0.541858407079646	1	0	TRUE	0.458141592920354	0	1.28343517104965	7.77013442497658	0.55
0.55	a police officer	an addict	35	random	1	30	1	strangle	impersonal	k	Yes	7.45356187164337	N/A	-1	0.734712	0.0395668876030778	0.530576	1	1	TRUE	0.469424	1	-0.329011205408629	7.782573077052	0.55
0.55	a gang member	a congressman	35	random	1	164	1	strangle	impersonal	d	No	7.59488438721652	N/A	-1	0.707463636363636	0.0443229412173818	0.585072727272727	-1	1	FALSE	-0.414927272727273	1	-0.175250037765191	7.77013442498171	0.55
0.55	an elderly person	a congressman	35	random	1	33	1	unidentified	impersonal	d	No	7.62021477057445	N/A	-1	0.266703703703704	0.0411379243175607	0.533407407407407	1	0	TRUE	0.466592592592593	0	-0.157589215871035	7.77780398644549	0.55
0.55	an addict	a mentor	35	random	1	153	1	strangle	impersonal	d	No	7.94661756324447	N/A	-1	0.74653781512605	0.0407361600189282	0.506924369747899	-1	1	FALSE	-0.493075630252101	1	0.176483138237421	7.77013442500705	0.55
0.55	a pedophile	a convict	35	random	1	87	1	strangle	impersonal	d	No	7.82364593083495	N/A	-1	0.702255639097744	0.0415051708328112	0.595488721804511	-1	1	FALSE	-0.404511278195489	1	0.0535102331751007	7.77013569765985	0.55
0.55	a billionaire	a convict	35	random	1	48	1	strangle	impersonal	k	Yes	8.14554963178358	N/A	-1	0.735190082644628	0.0412156533418797	0.529619834710744	1	1	TRUE	0.470380165289256	1	0.374731678359646	7.77081795342394	0.55
0.55	a terrorist	a thief	35	random	1	179	1	strangle	personal	d	No	7.65964295456468	N/A	-1	0.267127118644068	0.041226199879026	0.534254237288136	-1	1	FALSE	-0.465745762711864	1	-0.110491470412307	7.77013442497699	0.55
0.55	a congressman	a thief	35	random	1	152	1	strangle	impersonal	k	Yes	7.14045304310116	N/A	-1	0.730127272727273	0.0437295808713659	0.539745454545455	1	1	TRUE	0.460254545454545	1	-0.629681381911233	7.77013442501239	0.55
0.55	a gang member	a celebrity	35	random	1	77	1	strangle	impersonal	d	No	7.64060382639363	N/A	-1	0.744261261261261	0.0398569023490935	0.511477477477478	-1	1	FALSE	-0.488522522522522	1	-0.129536977245719	7.77014080363935	0.55
0.55	a pedophile	a convict	35	random	1	92	1	strangle	personal	d	No	8.00770001288403	N/A	-1	0.702255639097744	0.0415051708328112	0.595488721804511	-1	1	FALSE	-0.404511278195489	1	0.237565019426822	7.7701349934572	0.55
0.55	a convict	a billionaire	35	random	1	161	1	unidentified	impersonal	d	No	8.38753998318937	N/A	-1	0.735190082644628	0.0412156533418797	0.529619834710744	-1	1	FALSE	-0.470380165289256	1	0.617405558204432	7.77013442498493	0.55
0.65	an addict	a gang member	35	random	1	17	1	strangle	impersonal	k	Yes	7.72179177681754	N/A	-1	0.316758620689655	0.0431305910190316	0.63351724137931	1	1	TRUE	0.36648275862069	1	-0.149450620351421	7.87124239716896	0.65
0.65	an orphan	a nun	35	random	1	5	1	unidentified	personal	k	Yes	7.88495294575981	N/A	-1	0.31072131147541	0.0423384389985975	0.62144262295082	1	1	TRUE	0.37855737704918	1	-0.584695705261543	8.46964865102136	0.65
0.65	an addict	a nun	35	random	1	144	1	unidentified	impersonal	k	Yes	8.82511897034506	N/A	-1	0.66615	0.0448090617920678	0.6677	-1	0	FALSE	-0.3323	0	1.05498454523832	7.77013442510674	0.65
0.65	a judge	an elderly person	35	random	1	127	1	strangle	impersonal	k	Yes	7.13489085156588	N/A	-1	0.333735042735043	0.0446773279879136	0.667470085470085	-1	0	FALSE	-0.332529914529915	0	-0.635243575427538	7.77013442699342	0.65
0.65	an addict	a billionaire	35	random	1	94	1	unidentified	impersonal	d	No	8.7224171414275	N/A	-1	0.665	0.0451950509514715	0.67	-1	1	FALSE	-0.33	1	0.952282304624886	7.77013483680261	0.65
0.65	an addict	a judge	35	random	1	16	1	unidentified	impersonal	d	No	8.17835816560584	N/A	-1	0.670290598290598	0.0430650604440267	0.659418803418803	-1	1	FALSE	-0.340581196581197	1	0.289431977143108	7.88892618846273	0.65
0.65	a convict	a congressman	35	random	1	155	1	unidentified	personal	d	No	8.00001409367807	N/A	-1	0.65695	0.0442488532797419	0.6861	-1	1	FALSE	-0.3139	1	0.22987966867943	7.77013442499864	0.65
0.65	a congressman	an adult	35	random	1	12	1	unidentified	impersonal	k	Yes	7.58882987830781	N/A	-1	0.314082568807339	0.0456033290583103	0.628165137614679	-1	0	FALSE	-0.371834862385321	0	-0.407659522881873	7.99648940118969	0.65
0.65	a homeless adult	an elderly person	35	random	1	19	1	unidentified	impersonal	k	Yes	7.67925142595306	N/A	-1	0.317927419354839	0.0421036704340274	0.635854838709677	-1	0	FALSE	-0.364145161290323	0	-0.164128936488042	7.8433803624411	0.65
0.65	a celebrity	a college student	35	random	1	98	1	strangle	personal	d	No	7.61529833982581	N/A	-1	0.345309090909091	0.0439224401758251	0.690618181818182	-1	1	FALSE	-0.309381818181818	1	-0.154836301278263	7.77013464110408	0.65
0.65	a pedophile	a rapist	35	random	1	157	1	unidentified	impersonal	k	Yes	8.30943074214033	N/A	-1	0.323461538461538	0.0419052023836566	0.646923076923077	-1	0	FALSE	-0.353076923076923	0	0.539296317147783	7.77013442499255	0.65
0.65	a terrorist	a convict	35	random	1	54	1	unidentified	personal	d	No	7.7397944584087	N/A	-1	0.6673125	0.0424776671177487	0.665375	-1	1	FALSE	-0.334625	1	-0.0305998334994495	7.77039429190815	0.65
0.65	a rapist	a convict	35	random	1	82	1	strangle	impersonal	d	No	7.48773376143644	N/A	-1	0.683222222222222	0.0405122797598559	0.633555555555556	-1	1	FALSE	-0.366444444444444	1	-0.282403512753626	7.77013727419007	0.65
0.65	a convict	a terrorist	35	random	1	190	1	unidentified	personal	k	Yes	7.84384863815247	N/A	-1	0.6673125	0.0424776671177487	0.665375	1	1	TRUE	0.334625	1	0.0737142131758661	7.77013442497661	0.65
0.65	an astronaut	a congressman	35	random	1	23	1	strangle	personal	k	Yes	7.79852305362521	N/A	-1	0.346626086956522	0.0439801781580704	0.693252173913044	1	1	TRUE	0.306747826086956	1	-0.010051056774552	7.80857411039976	0.65
0.65	an addict	an assassin	35	random	1	109	1	strangle	personal	k	Yes	8.43771698991444	N/A	-1	0.695537190082645	0.0432380485421139	0.608925619834711	1	1	TRUE	0.391074380165289	1	0.667582528235052	7.77013446167939	0.65
0.65	a rapist	a terrorist	35	random	1	18	1	unidentified	impersonal	d	No	7.26262860097424	N/A	-1	0.327384	0.0414411620724361	0.654768	-1	1	FALSE	-0.345232	1	-0.593562480969521	7.85619108194376	0.65
0.65	an orphan	a judge	35	random	1	83	1	strangle	personal	d	No	8.98544528762317	N/A	-1	0.323033613445378	0.0420214489238273	0.646067226890756	1	0	TRUE	0.353932773109244	0	1.2153084375778	7.77013685004536	0.65
0.65	a rapist	a pedophile	35	random	1	9	1	strangle	impersonal	d	No	8.08886878916199	N/A	-1	0.323461538461538	0.0419052023836566	0.646923076923077	1	0	TRUE	0.353076923076923	0	-0.048372778258349	8.13724156742034	0.65
0.65	an orphan	a judge	35	random	1	56	1	strangle	impersonal	k	Yes	8.05706068196577	N/A	-1	0.323033613445378	0.0420214489238273	0.646067226890756	1	1	TRUE	0.353932773109244	1	0.286738000844742	7.77032268112102	0.65
0.65	a congressman	a mentor	35	random	1	191	1	unidentified	impersonal	d	No	8.87066300440602	N/A	-1	0.309752212389381	0.0433194273991671	0.619504424778761	-1	1	FALSE	-0.380495575221239	1	1.10052857942943	7.77013442497659	0.65
0.65	a congressman	a police officer	35	random	1	160	1	strangle	impersonal	d	No	7.21007962817079	N/A	-1	0.317361344537815	0.0433028380272686	0.63472268907563	-1	1	FALSE	-0.36527731092437	1	-0.560054796815617	7.7701344249864	0.65
0.65	an adult	a congressman	35	random	1	42	1	unidentified	impersonal	d	No	7.51534457118044	N/A	-1	0.314082568807339	0.0456033290583103	0.628165137614679	1	0	TRUE	0.371834862385321	0	-0.25658773987379	7.77193231105423	0.65
0.65	an orphan	an olympian	35	random	1	178	1	strangle	impersonal	k	Yes	8.15363748638528	N/A	-1	0.322433628318584	0.0434655627051088	0.644867256637168	1	1	TRUE	0.355132743362832	1	0.383503061408212	7.77013442497707	0.65
0.65	a mentor	a congressman	35	random	1	62	1	unidentified	personal	d	No	8.03430693633949	N/A	-1	0.309752212389381	0.0433194273991671	0.619504424778761	1	0	TRUE	0.380495575221239	0	0.264100939291872	7.77020599704762	0.65
0.65	a soldier	a billionaire	35	random	1	74	1	unidentified	personal	k	Yes	8.32796785830549	N/A	-1	0.33312389380531	0.0441631539761036	0.666247787610619	1	1	TRUE	0.333752212389381	1	0.557823088282778	7.77014477002271	0.65
0.65	an orphan	a homeless adult	35	random	1	32	1	strangle	impersonal	k	Yes	7.44073370738926	N/A	-1	0.30840157480315	0.041915692975954	0.616803149606299	1	1	TRUE	0.383196850393701	1	-0.338411685884899	7.77914539327416	0.65
0.75	a gang member	a terrorist	35	random	1	147	1	strangle	personal	k	Yes	8.26616443661249	N/A	-1	0.621059322033898	0.0439655672850916	0.757881355932203	1	1	TRUE	0.242118644067797	1	0.496030011555674	7.77013442505682	0.75
0.75	an astronaut	an elderly person	35	random	1	8	1	unidentified	impersonal	k	Yes	7.96901178110648	N/A	-1	0.364818181818182	0.0444359657055397	0.729636363636364	-1	0	FALSE	-0.270363636363636	0	-0.232436850788203	8.20144863189468	0.75
0.75	a celebrity	an addict	35	random	1	45	1	strangle	impersonal	k	Yes	8.12385426310591	N/A	-1	0.617743119266055	0.0462241766613936	0.76451376146789	1	1	TRUE	0.23548623853211	1	0.352611277675774	7.77124298543014	0.75
0.75	an adult	a judge	35	random	1	130	1	unidentified	impersonal	d	No	7.85205020726589	N/A	-1	0.391525423728814	0.0422309766491521	0.783050847457627	1	0	TRUE	0.216949152542373	0	0.0819157810457627	7.77013442622013	0.75
0.75	an astronaut	a celebrity	35	random	1	140	1	strangle	impersonal	k	Yes	8.26642147298455	N/A	-1	0.393646551724138	0.0469024400715304	0.787293103448276	1	1	TRUE	0.212706896551724	1	0.496287047759902	7.77013442522465	0.75
0.75	a judge	a mentor	35	random	1	139	1	unidentified	personal	d	No	8.11910083763749	N/A	-1	0.384237704918033	0.0437741689615472	0.768475409836066	-1	1	FALSE	-0.231524590163934	1	0.348966412369436	7.77013442526805	0.75
0.75	a billionaire	an elderly person	35	random	1	22	1	unidentified	impersonal	k	Yes	7.51261754467451	N/A	-1	0.365798165137615	0.0452694092575148	0.731596330275229	-1	0	FALSE	-0.268403669724771	0	-0.302679669350834	7.81529721402534	0.75
0.75	an orphan	a billionaire	35	random	1	66	1	unidentified	impersonal	k	Yes	8.18172045512811	N/A	-1	0.362955357142857	0.045849382347557	0.725910714285714	1	1	TRUE	0.274089285714286	1	0.4115484689162	7.77017198621191	0.75
0.75	an orphan	an adult	35	random	1	36	1	unidentified	impersonal	k	Yes	7.35883089834235	N/A	-1	0.395822033898305	0.0466636599620169	0.79164406779661	1	1	TRUE	0.20835593220339	1	-0.416032509547215	7.77486340788957	0.75
0.75	an adult	a judge	35	random	1	184	1	unidentified	personal	d	No	7.9820748750812	N/A	-1	0.391525423728814	0.0422309766491521	0.783050847457627	1	0	TRUE	0.216949152542373	0	0.211940450104469	7.77013442497673	0.75
0.75	an astronaut	a soldier	35	random	1	102	1	strangle	personal	d	No	7.64730883235624	N/A	-1	0.641306451612903	0.0437070652184035	0.717387096774194	-1	1	FALSE	-0.282612903225806	1	-0.12282570604467	7.77013453840091	0.75
0.75	a soldier	a college student	35	random	1	169	1	unidentified	personal	d	No	7.78779687818117	N/A	-1	0.37121186440678	0.0447197833520734	0.742423728813559	1	0	TRUE	0.257576271186441	0	0.0176624532023277	7.77013442497884	0.75
0.75	an adult	a nun	35	random	1	76	1	unidentified	impersonal	k	Yes	7.67832635650689	N/A	-1	0.387950413223141	0.0423644722438221	0.775900826446281	1	1	TRUE	0.224099173553719	1	-0.0918155627610346	7.77014191926792	0.75
0.75	an adult	an elderly person	35	random	1	44	1	strangle	impersonal	k	Yes	7.35244110024358	N/A	-1	0.3986	0.0445207984719687	0.7972	-1	0	FALSE	-0.2028	0	-0.418995772486173	7.77143687272976	0.75
0.75	an astronaut	an elderly person	35	random	1	64	1	strangle	personal	k	Yes	7.6004023345004	N/A	-1	0.364818181818182	0.0444359657055397	0.729636363636364	-1	0	FALSE	-0.270363636363636	0	-0.169783939636283	7.77018627413668	0.75
0.75	a congressman	a judge	35	random	1	50	1	strangle	personal	k	Yes	7.58832367733522	N/A	-1	0.374252252252252	0.0462967044455262	0.748504504504505	-1	0	FALSE	-0.251495495495495	0	-0.182305918109357	7.77062959544458	0.75
0.75	an orphan	an astronaut	35	random	1	95	1	strangle	personal	k	Yes	8.59062950948942	N/A	-1	0.354886178861789	0.0433170751441888	0.709772357723577	1	1	TRUE	0.290227642276423	1	0.820494733992798	7.77013477549662	0.75
0.75	a mentor	a soldier	35	random	1	93	1	unidentified	personal	d	No	7.60539236481493	N/A	-1	0.367056910569106	0.043529553729685	0.734113821138211	-1	1	FALSE	-0.265886178861789	1	-0.164742544016086	7.77013490883102	0.75
0.75	a judge	a police officer	35	random	1	55	1	strangle	impersonal	k	Yes	8.15133333790043	N/A	-1	0.386015625	0.0430285338608067	0.77203125	-1	0	FALSE	-0.22796875	0	0.380977730766782	7.77035560713365	0.75
0.75	a homeless adult	a mentor	35	random	1	188	1	unidentified	personal	d	No	8.07589363029886	N/A	-1	0.367046153846154	0.0408210885758222	0.734092307692308	-1	1	FALSE	-0.265907692307692	1	0.305759205322222	7.77013442497664	0.75
0.75	an astronaut	an orphan	35	random	1	13	1	unidentified	impersonal	k	Yes	9.32963337816417	N/A	-1	0.354886178861789	0.0433170751441888	0.709772357723577	-1	0	FALSE	-0.290227642276423	0	1.36684003501915	7.96279334314501	0.75
0.75	a soldier	a mentor	35	random	1	59	1	strangle	impersonal	k	Yes	7.7007477945118	N/A	-1	0.367056910569106	0.043529553729685	0.734113821138211	1	1	TRUE	0.265886178861789	1	-0.0695027075174002	7.7702505020292	0.75
0.85	a billionaire	a college student	35	random	1	181	1	unidentified	personal	d	No	7.54380286750151	N/A	-1	0.410381818181818	0.0476239394617643	0.820763636363636	-1	1	FALSE	-0.179236363636364	1	-0.226331557475353	7.77013442497686	0.85
0.85	an astronaut	a homeless adult	35	random	1	39	1	strangle	personal	k	Yes	7.44483327389219	N/A	-1	0.419412213740458	0.0433921379190235	0.838824427480916	1	1	TRUE	0.161175572519084	1	-0.328216999595665	7.77305027348786	0.85
0.85	an adult	a billionaire	35	random	1	113	1	strangle	personal	d	No	8.42617379302907	N/A	-1	0.422738738738739	0.0472777855624736	0.845477477477477	1	0	TRUE	0.154522522522523	0	0.656039348790771	7.7701344442383	0.85
0.85	a celebrity	a homeless adult	35	random	1	84	1	strangle	impersonal	d	No	8.05959232888755	N/A	-1	0.436633333333333	0.045219087529362	0.873266666666667	-1	1	FALSE	-0.126733333333333	1	0.289455839847102	7.77013648904044	0.85
0.85	a nun	a celebrity	35	random	1	180	1	strangle	personal	d	No	8.40065937516029	N/A	-1	0.440539130434783	0.0454318102235983	0.881078260869565	1	0	TRUE	0.118921739130435	0	0.630524950183365	7.77013442497692	0.85
0.85	an olympian	a celebrity	35	random	1	58	1	strangle	personal	k	Yes	8.85337967292763	N/A	-1	0.420575471698113	0.0461294211031207	0.841150943396226	1	1	TRUE	0.158849056603774	1	1.08310886901394	7.7702708039137	0.85
0.85	an olympian	a police officer	35	random	1	189	1	strangle	impersonal	d	No	7.55799495853081	N/A	-1	0.556885245901639	0.0460170664608795	0.886229508196721	-1	1	FALSE	-0.113770491803279	1	-0.212139466445814	7.77013442497662	0.85
0.85	a college student	a judge	35	random	1	11	1	unidentified	impersonal	k	Yes	8.79785064893105	N/A	-1	0.559423728813559	0.0461732538643046	0.881152542372881	1	1	TRUE	0.118847457627119	1	0.76177174682603	8.03607890210502	0.85
0.85	a billionaire	a police officer	35	random	1	10	1	strangle	impersonal	d	No	7.81843027207066	N/A	-1	0.42004132231405	0.0441765864546982	0.840082644628099	-1	1	FALSE	-0.159917355371901	1	-0.26416233738398	8.08259260945464	0.85
0.85	a billionaire	a police officer	35	random	1	46	1	unidentified	personal	d	No	7.29776828253138	N/A	-1	0.42004132231405	0.0441765864546982	0.840082644628099	-1	1	FALSE	-0.159917355371901	1	-0.473309678396025	7.77107796092741	0.85
0.85	a college student	an orphan	35	random	1	174	1	unidentified	personal	d	No	7.81601383915903	N/A	-1	0.411478632478632	0.0456614219383988	0.822957264957265	-1	1	FALSE	-0.177042735042735	1	0.0458794141814662	7.77013442497756	0.85
0.85	a judge	a college student	35	random	1	1	1	strangle	impersonal	k	Yes	9.25913053614561	N/A	-1	0.559423728813559	0.0461732538643046	0.881152542372881	-1	0	FALSE	-0.118847457627119	0	0.156087824008781	9.10304271213683	0.85
0.85	an astronaut	a nun	35	random	1	29	1	strangle	personal	k	Yes	7.25063551189868	N/A	-1	0.415456692913386	0.0436746013597216	0.830913385826772	1	1	TRUE	0.169086614173228	1	-0.534113086257236	7.78474859815592	0.85
0.85	a mentor	an elderly person	35	random	1	40	1	strangle	impersonal	k	Yes	7.16162200293919	N/A	-1	0.410546218487395	0.0455578192041821	0.82109243697479	-1	0	FALSE	-0.17890756302521	0	-0.610994206308817	7.772616209248	0.85
0.85	an adult	a soldier	35	random	1	167	1	strangle	personal	d	No	7.20711885620776	N/A	-1	0.59055462184874	0.044721474934607	0.818890756302521	-1	1	FALSE	-0.181109243697479	1	-0.563015568771968	7.77013442497972	0.85
0.85	a celebrity	a judge	35	random	1	131	1	strangle	personal	d	No	7.68386398025643	N/A	-1	0.419758928571429	0.0477168389036276	0.839517857142857	-1	1	FALSE	-0.160482142857143	1	-0.0862704457785703	7.770134426035	0.85
0.85	a congressman	a billionaire	35	random	1	61	1	strangle	impersonal	k	Yes	8.39795910349254	N/A	-1	0.576893203883495	0.0489141042250305	0.84621359223301	-1	0	FALSE	-0.15378640776699	0	0.627740588484764	7.77021851500777	0.85
0.85	a convict	an assassin	35	random	1	60	1	unidentified	impersonal	d	No	8.30251371851416	N/A	-1	0.578556390977444	0.0423683036665345	0.842887218045113	1	0	TRUE	0.157112781954887	0	0.532280496154131	7.77023322236003	0.85
0.85	a mentor	a billionaire	35	random	1	89	1	unidentified	impersonal	k	Yes	7.95085485771999	N/A	-1	0.4162	0.0457691544167611	0.8324	1	1	TRUE	0.1676	1	0.18071951076984	7.77013534695015	0.85
0.95	an adult	an olympian	35	random	1	2	1	unidentified	personal	k	Yes	9.14227564106205	N/A	-1	0.538241071428571	0.0481381500213955	0.923517857142857	1	1	TRUE	0.0764821428571431	1	0.237654698853902	8.90462094220815	0.95
0.95	a thief	a convict	35	random	1	159	1	unidentified	personal	d	No	7.66246781520024	N/A	-1	0.5328359375	0.0453215538129195	0.934328125	-1	1	FALSE	-0.065671875	1	-0.107666609787895	7.77013442498813	0.95
0.95	a billionaire	a homeless adult	35	random	1	6	1	unidentified	personal	k	Yes	8.83811659764782	N/A	-1	0.494091666666667	0.045396398378765	0.988183333333333	-1	0	FALSE	-0.011816666666667	0	0.472600280530555	8.36551631711727	0.95
0.95	a billionaire	a homeless adult	35	random	1	7	1	strangle	impersonal	k	Yes	9.15936281721132	N/A	-1	0.494091666666667	0.045396398378765	0.988183333333333	-1	0	FALSE	-0.011816666666667	0	0.882477300847594	8.27688551636372	0.95
0.95	a convict	a gang member	35	random	1	81	1	strangle	impersonal	k	Yes	8.59692815943509	N/A	-1	0.5054140625	0.042996468360859	0.989171875	1	1	TRUE	0.010828125	1	0.826790386917377	7.77013777251771	0.95
0.95	an elderly person	a soldier	35	random	1	52	1	strangle	impersonal	d	No	7.70751219460034	N/A	-1	0.515145299145299	0.0465444626362203	0.969709401709402	-1	1	FALSE	-0.030290598290598	1	-0.0629809481345474	7.77049314273489	0.95
0.95	a billionaire	a nun	35	random	1	171	1	strangle	personal	d	No	7.65302041380419	N/A	-1	0.50144347826087	0.0469497544202379	0.997113043478261	1	0	TRUE	0.00288695652173898	0	-0.117114011174016	7.77013442497821	0.95
0.95	a soldier	an orphan	35	random	1	72	1	unidentified	impersonal	d	No	7.9973268229981	N/A	-1	0.51975	0.0455407059710847	0.9605	1	0	TRUE	0.0395	0	0.227178117821494	7.7701487051766	0.95
0.95	a soldier	an orphan	35	random	1	111	1	unidentified	personal	d	No	7.40245152081824	N/A	-1	0.51975	0.0455407059710847	0.9605	1	0	TRUE	0.0395	0	-0.367682930747042	7.77013445156529	0.95
0.95	a college student	a police officer	35	random	1	168	1	strangle	impersonal	d	No	7.2591161280971	N/A	-1	0.473634920634921	0.0440580805059561	0.947269841269841	-1	1	FALSE	-0.052730158730159	1	-0.511018296882147	7.77013442497925	0.95
0.95	a homeless adult	an olympian	35	random	1	142	1	unidentified	personal	d	No	7.93880224815448	N/A	-1	0.455826446280992	0.0446986183182352	0.911652892561983	-1	1	FALSE	-0.088347107438017	1	0.168667822998203	7.77013442515628	0.95
0.95	a police officer	an astronaut	35	random	1	91	1	unidentified	personal	d	No	8.15075647027555	N/A	-1	0.531371212121212	0.0439202738766455	0.937257575757576	1	0	TRUE	0.062742424242424	0	0.380621377391037	7.77013509288451	0.95
0.95	a mentor	a police officer	35	random	1	121	1	strangle	impersonal	d	No	7.90801944463247	N/A	-1	0.471458015267176	0.0433438039397077	0.942916030534351	-1	1	FALSE	-0.057083969465649	1	0.137885014350903	7.77013443028157	0.95
0.95	a gang member	an assassin	35	random	1	71	1	unidentified	impersonal	d	No	7.73892375743946	N/A	-1	0.52550406504065	0.0447239404295278	0.948991869918699	1	0	TRUE	0.051008130081301	0	-0.031227445345122	7.77015120278458	0.95
0.95	a convict	a gang member	35	random	1	70	1	unidentified	personal	k	Yes	8.67760991282214	N/A	-1	0.5054140625	0.042996468360859	0.989171875	1	1	TRUE	0.010828125	1	0.90745577559778	7.77015413722436	0.95
0.95	a police officer	a college student	35	random	1	27	1	unidentified	personal	k	Yes	7.73149202924568	N/A	-1	0.473634920634921	0.0440580805059561	0.947269841269841	1	1	TRUE	0.052730158730159	1	-0.0588156567550682	7.79030768600075	0.95
0.95	a convict	a thief	35	random	1	68	1	strangle	personal	d	No	8.12622252945853	N/A	-1	0.5328359375	0.0453215538129195	0.934328125	1	0	TRUE	0.065671875	0	0.356060893888826	7.7701616355697	0.95
0.95	an assassin	a gang member	35	random	1	3	1	strangle	personal	k	Yes	8.26744895830485	N/A	-1	0.52550406504065	0.0447239404295278	0.948991869918699	-1	0	FALSE	-0.051008130081301	0	-0.468288029262355	8.7357369875672	0.95
0.95	a college student	a mentor	35	random	1	156	1	strangle	personal	d	No	7.14677217945264	N/A	-1	0.479666666666667	0.0456956025027364	0.959333333333333	-1	1	FALSE	-0.040666666666667	1	-0.623362245542712	7.77013442499535	0.95
0.95	an astronaut	a mentor	35	random	1	177	1	strangle	personal	d	No	7.32712329225929	N/A	-1	0.527666666666667	0.0465503126503863	0.944666666666667	-1	1	FALSE	-0.055333333333333	1	-0.443011132717873	7.77013442497717	0.95
0.95	an astronaut	an olympian	35	random	1	100	1	strangle	personal	k	Yes	7.44132038971762	N/A	-1	0.507847457627119	0.0468185212617855	0.984305084745763	1	1	TRUE	0.0156949152542371	1	-0.32881419182881	7.77013458154643	0.95
0.95	a nun	a homeless adult	35	random	1	128	1	strangle	impersonal	d	No	8.69332898912311	N/A	-1	0.472969230769231	0.0429675844550938	0.945938461538462	1	0	TRUE	0.0540615384615381	0	0.923194562429927	7.77013442669318	0.95
0.95	an olympian	a nun	35	random	1	78	1	unidentified	personal	k	Yes	8.42748727833174	N/A	-1	0.451598290598291	0.0471287010162707	0.903196581196581	1	1	TRUE	0.096803418803419	1	0.65734742424427	7.77013985408747	0.95
0.95	a gang member	a thief	35	random	1	57	1	strangle	personal	d	No	8.20521842639541	N/A	-1	0.480940677966102	0.045567624747039	0.961881355932203	-1	1	FALSE	-0.038118644067797	1	0.434923769796218	7.77029465659919	0.95
0.05	a rapist	an orphan	58	random	1	159	1	unidentified	impersonal	k	No	6.87729607149743	N/A	-1	0.0348650793650794	0.0158741101836107	0.0697301587301588	-1	1	FALSE	-0.930269841269841	1	0.0335017429966804	6.84379432850075	0.05
0.05	a pedophile	an olympian	58	random	1	131	1	strangle	impersonal	k	No	6.87935580446044	N/A	-1	0.0391949152542373	0.0182843377994394	0.0783898305084746	-1	1	FALSE	-0.921610169491525	1	-0.0382271989937371	6.91758300345418	0.05
0.05	a college student	a pedophile	58	random	1	199	1	unidentified	impersonal	k	No	6.83733281468559	N/A	-1	0.961213114754098	0.0176425906742174	0.0775737704918034	1	0	TRUE	0.922426229508197	0	0.0975876004936316	6.73974521419196	0.05
0.05	a pedophile	an orphan	58	random	1	220	1	unidentified	personal	k	No	7.05703698169789	N/A	-1	0.0286747967479675	0.0146488578211018	0.0573495934959349	-1	1	FALSE	-0.942650406504065	1	0.371282764018641	6.68575421767925	0.05
0.05	an astronaut	a rapist	58	random	1	20	1	strangle	impersonal	k	No	7.75190533307861	N/A	-1	0.0476384615384615	0.0184543359451891	0.095276923076923	1	0	TRUE	0.904723076923077	0	0.533890675812086	7.21801465726652	0.05
0.05	a rapist	an elderly person	58	random	1	27	1	strangle	personal	k	No	7.12447826249342	N/A	-1	0.0392926829268293	0.0180077483800635	0.0785853658536585	-1	1	FALSE	-0.921414634146342	1	-0.0742105856402073	7.19868884813363	0.05
0.05	a rapist	an elderly person	58	random	1	184	1	strangle	personal	k	No	6.95272864462487	N/A	-1	0.0392926829268293	0.0180077483800635	0.0785853658536585	-1	1	FALSE	-0.921414634146342	1	0.17415169536307	6.7785769492618	0.05
0.05	a rapist	an adult	58	random	1	81	1	unidentified	personal	k	No	6.89871453432999	N/A	-1	0.04288	0.0186793607631128	0.0857600000000001	-1	1	FALSE	-0.91424	1	-0.152618340639974	7.05133287496996	0.05
0.05	a rapist	an astronaut	58	random	1	125	1	strangle	impersonal	k	No	6.94985645500077	N/A	-1	0.0476384615384615	0.0184543359451891	0.095276923076923	-1	1	FALSE	-0.904723076923077	1	0.0163583772600138	6.93349807774076	0.05
0.05	an astronaut	a terrorist	58	random	1	58	1	strangle	impersonal	k	No	6.77308037565554	N/A	-1	0.0457317073170732	0.0179179913546918	0.0914634146341463	1	0	TRUE	0.908536585365854	0	-0.340642826774005	7.11372320242954	0.05
0.05	an astronaut	a pedophile	58	random	1	52	1	strangle	impersonal	k	No	7.9844627322622	N/A	-1	0.0383125	0.0167948861566107	0.0766249999999999	1	0	TRUE	0.923375	0	0.854373201714249	7.13008953054795	0.05
0.05	an elderly person	a terrorist	58	random	1	14	1	unidentified	impersonal	k	No	6.82001636467413	N/A	-1	0.0362586206896552	0.0177171171099633	0.0725172413793104	1	0	TRUE	0.92748275862069	0	-0.414604560911066	7.2346209255852	0.05
0.05	a terrorist	an orphan	58	random	1	80	1	strangle	personal	k	No	6.77536609093639	N/A	-1	0.029864406779661	0.0160637756380309	0.059728813559322	-1	1	FALSE	-0.940271186440678	1	-0.278667993873395	7.05403408480979	0.05
0.05	a pedophile	a college student	58	random	1	197	1	strangle	personal	k	No	6.94793706861497	N/A	-1	0.961213114754098	0.0176425906742174	0.0775737704918034	-1	1	FALSE	-0.922426229508197	1	0.203027170392552	6.74490989822242	0.05
0.05	a mentor	a rapist	58	random	1	108	1	strangle	impersonal	k	No	7.80751004221619	N/A	-1	0.950279069767442	0.0195449724178816	0.0994418604651164	1	0	TRUE	0.900558139534884	0	0.828720132710776	6.97878990950542	0.05
0.15	a nun	a pedophile	58	random	1	30	1	unidentified	personal	k	No	7.6425241342329	N/A	-1	0.944614173228346	0.0199964242778091	0.110771653543307	1	0	TRUE	0.889228346456693	0	0.452101927727984	7.19042220650492	0.15
0.15	a judge	a rapist	58	random	1	38	1	strangle	personal	k	No	7.36201055125973	N/A	-1	0.929198412698413	0.0221520285232864	0.141603174603175	1	0	TRUE	0.858396825396825	0	0.193586341669103	7.16842420959063	0.15
0.15	a soldier	an assassin	58	random	1	73	1	strangle	impersonal	k	No	6.60123011872888	N/A	-1	0.925896	0.0230590742421482	0.148208	1	0	TRUE	0.851792	0	-0.471741430835383	7.07297154956426	0.15
0.15	a nun	a terrorist	58	random	1	23	1	unidentified	personal	k	No	7.81197342962202	N/A	-1	0.924688524590164	0.0232050767994503	0.150622950819672	1	0	TRUE	0.849377049180328	0	0.602247606850393	7.20972582277163	0.15
0.15	an orphan	an assassin	58	random	1	36	1	strangle	impersonal	d	Yes	7.78322401633604	N/A	-1	0.0619596774193548	0.0219733054731573	0.12391935483871	1	1	TRUE	0.87608064516129	1	0.609306624902143	7.17391739143389	0.15
0.15	a nun	a rapist	58	random	1	65	1	unidentified	personal	k	No	7.48885295573346	N/A	-1	0.926565891472868	0.0231368782695567	0.146868217054264	1	0	TRUE	0.853131782945736	0	0.394176328208832	7.09467662752463	0.15
0.15	an orphan	an assassin	58	random	1	160	1	unidentified	personal	k	No	6.61740297797448	N/A	-1	0.0619596774193548	0.0219733054731573	0.12391935483871	1	0	TRUE	0.87608064516129	0	-0.223770648051685	6.84117362602616	0.15
0.15	a soldier	a gang member	58	random	1	158	1	strangle	impersonal	k	No	6.51174532964473	N/A	-1	0.0983361344537815	0.0267793798426612	0.196672268907563	1	0	TRUE	0.803327731092437	0	-0.334670705263825	6.84641603490855	0.15
0.15	a soldier	a gang member	58	random	1	203	1	unidentified	impersonal	k	No	7.04228617193974	N/A	-1	0.0983361344537815	0.0267793798426612	0.196672268907563	1	0	TRUE	0.803327731092437	0	0.312858464796478	6.72942770714327	0.15
0.15	an olympian	a terrorist	58	random	1	179	1	strangle	personal	k	No	6.75110146893676	N/A	-1	0.0506371681415929	0.0198943284222663	0.101274336283186	1	0	TRUE	0.898725663716814	0	-0.0404690469621212	6.79157051589888	0.15
0.15	a police officer	a terrorist	58	random	1	17	1	unidentified	impersonal	d	Yes	7.67925142595306	N/A	-1	0.935637795275591	0.0224759664173576	0.128724409448819	1	1	TRUE	0.871275590551181	1	0.452938404733935	7.22631302121912	0.15
0.15	a rapist	an olympian	58	random	1	75	1	unidentified	impersonal	k	No	6.76041469108343	N/A	-1	0.0517416666666667	0.0204622761786923	0.103483333333333	-1	1	FALSE	-0.896516666666667	1	-0.307140972462911	7.06755566354634	0.15
0.15	an assassin	a college student	58	random	1	240	1	strangle	personal	k	No	6.58617165485467	N/A	-1	0.902647540983607	0.0261808886903617	0.194704918032787	-1	1	FALSE	-0.805295081967213	1	-0.0485647270149601	6.63473638186963	0.15
0.15	a pedophile	a homeless adult	58	random	1	173	1	unidentified	impersonal	k	No	6.86484777797086	N/A	-1	0.924580152671756	0.0228070940929906	0.150839694656488	-1	1	FALSE	-0.849160305343512	1	0.0576521009096016	6.80719567706126	0.15
0.15	an astronaut	an assassin	58	random	1	181	1	strangle	impersonal	k	No	6.50128967054039	N/A	-1	0.0898828125	0.0251099939948124	0.179765625	1	0	TRUE	0.820234375	0	-0.285080432556175	6.78637010309656	0.15
0.15	a mentor	an assassin	58	random	1	90	1	unidentified	personal	k	No	6.65157187358973	N/A	-1	0.900732283464567	0.0279379356743691	0.198535433070866	1	0	TRUE	0.801464566929134	0	-0.375496612312628	7.02706848590236	0.15
0.15	a judge	a rapist	58	random	1	183	1	strangle	impersonal	k	No	6.79682371827486	N/A	-1	0.929198412698413	0.0221520285232864	0.141603174603175	1	0	TRUE	0.858396825396825	0	0.0156500459423956	6.78117367233246	0.15
0.15	a rapist	a police officer	58	random	1	150	1	strangle	impersonal	k	No	7.46106551435428	N/A	-1	0.93637037037037	0.0210349033398431	0.127259259259259	-1	1	FALSE	-0.872740740740741	1	0.5936396404063	6.86742587394798	0.15
0.15	a homeless adult	a terrorist	58	random	1	124	1	unidentified	personal	d	Yes	8.02191277898571	N/A	-1	0.910452380952381	0.0250985860540854	0.179095238095238	1	1	TRUE	0.820904761904762	1	1.08575863131263	6.93615414767308	0.15
0.25	an assassin	a judge	58	random	1	84	1	unidentified	personal	k	No	6.74523634948436	N/A	-1	0.861274193548387	0.0316994440123548	0.277451612903226	-1	1	FALSE	-0.722548387096774	1	-0.29799910064729	7.04323545013165	0.25
0.25	a terrorist	a celebrity	58	random	1	109	1	strangle	personal	k	No	7.05617528410041	N/A	-1	0.869756756756757	0.0320026196194734	0.260486486486486	-1	1	FALSE	-0.739513513513514	1	0.0800577710913766	6.97611751300903	0.25
0.25	a gang member	an orphan	58	random	1	92	1	unidentified	personal	k	No	7.55851674304564	N/A	-1	0.101254237288136	0.0277651098253917	0.202508474576271	-1	1	FALSE	-0.797491525423729	1	0.536828994460423	7.02168774858522	0.25
0.25	a gang member	an astronaut	58	random	1	147	1	unidentified	personal	k	No	6.73578001424233	N/A	-1	0.132577235772358	0.030749614149	0.265154471544715	-1	1	FALSE	-0.734845528455285	1	-0.139541160841148	6.87532117508347	0.25
0.25	a thief	a mentor	58	random	1	42	1	unidentified	impersonal	k	No	6.76157276880406	N/A	-1	0.874157024793388	0.0289866802663697	0.251685950413223	-1	1	FALSE	-0.748314049586777	1	-0.395877692527555	7.15745046133161	0.25
0.25	an assassin	a homeless adult	58	random	1	143	1	strangle	personal	k	No	7.24636808010246	N/A	-1	0.851590909090909	0.0323140421403737	0.296818181818182	-1	1	FALSE	-0.703181818181818	1	0.36050571522202	6.88586236488044	0.25
0.25	a rapist	a celebrity	58	random	1	186	1	strangle	impersonal	k	No	6.80239476332431	N/A	-1	0.874705882352941	0.0295773111610786	0.250588235294118	-1	1	FALSE	-0.749411764705882	1	0.0290082774856488	6.77338648583866	0.25
0.25	a pedophile	an addict	58	random	1	231	1	strangle	impersonal	k	No	6.73933662735717	N/A	-1	0.118520661157025	0.0304063224915403	0.23704132231405	-1	1	FALSE	-0.76295867768595	1	0.081690574797169	6.65764605256	0.25
0.25	an assassin	a police officer	58	random	1	50	1	strangle	personal	k	No	7.27309259599952	N/A	-1	0.883398496240602	0.0273431689265252	0.233203007518797	-1	1	FALSE	-0.766796992481203	1	0.137539259571106	7.13555333642842	0.25
0.25	an adult	an assassin	58	random	1	41	1	strangle	impersonal	k	No	7.11314210870709	N/A	-1	0.891219512195122	0.0287833976459904	0.217560975609756	1	0	TRUE	0.782439024390244	0	-0.047050213767232	7.16019232247432	0.25
0.25	a pedophile	a celebrity	58	random	1	33	1	strangle	impersonal	k	No	7.1066061377273	N/A	-1	0.891396551724138	0.028483929217034	0.217206896551724	-1	1	FALSE	-0.782793103448276	1	-0.075558920178155	7.18216505790546	0.25
0.25	a terrorist	a billionaire	58	random	1	169	1	unidentified	personal	k	No	7.11882624906208	N/A	-1	0.894315315315315	0.0286633224386688	0.211369369369369	-1	1	FALSE	-0.788630630630631	1	0.301193831695938	6.81763241736614	0.25
0.25	a college student	a thief	58	random	1	98	1	unidentified	impersonal	k	No	7.10414409298753	N/A	-1	0.87442735042735	0.0311801202848037	0.251145299145299	1	0	TRUE	0.748854700854701	0	0.0985738482773959	7.00557024471013	0.25
0.25	a congressman	a rapist	58	random	1	24	1	strangle	personal	k	No	7.11151211649616	N/A	-1	0.855307692307692	0.0313378168142828	0.289384615384615	1	0	TRUE	0.710615384615385	0	-0.0954528772093308	7.20696499370549	0.25
0.25	an addict	a rapist	58	random	1	100	1	unidentified	impersonal	k	No	7.03614849375054	N/A	-1	0.141479674796748	0.0313353744902551	0.282959349593496	1	0	TRUE	0.717040650406504	0	0.0359425248147396	7.0002059689358	0.25
0.25	a mentor	a gang member	58	random	1	153	1	strangle	impersonal	k	No	7.03085747611612	N/A	-1	0.121487603305785	0.0284828903234445	0.24297520661157	1	0	TRUE	0.75702479338843	0	0.171317836704641	6.85953963941148	0.25
0.25	an astronaut	a thief	58	random	1	15	1	strangle	personal	k	No	6.76157276880406	N/A	-1	0.117528455284553	0.028543869533805	0.235056910569106	1	0	TRUE	0.764943089430894	0	-0.470277794603041	7.2318505634071	0.25
0.25	a convict	an orphan	58	random	1	34	1	strangle	personal	k	No	6.76157276880406	N/A	-1	0.131296875	0.028813158765396	0.26259375	-1	1	FALSE	-0.73740625	1	-0.417842013912426	7.17941478271648	0.25
0.25	a rapist	a billionaire	58	random	1	5	1	strangle	impersonal	k	No	8.20357773693795	N/A	-1	0.89190756302521	0.0286354236878874	0.21618487394958	-1	1	FALSE	-0.78381512605042	1	0.943975746026977	7.25960199091097	0.25
0.35	a terrorist	an addict	58	random	1	76	1	strangle	impersonal	k	No	7.23489842031483	N/A	-1	0.153724137931034	0.0335020884210678	0.307448275862069	-1	1	FALSE	-0.692551724137931	1	0.170049144442885	7.06484927587195	0.35
0.35	a congressman	a terrorist	58	random	1	47	1	strangle	impersonal	k	No	7.23273313617761	N/A	-1	0.844918181818182	0.0347030985482637	0.310163636363636	1	0	TRUE	0.689836363636364	0	0.0889762394351106	7.1437568967425	0.35
0.35	a thief	a homeless adult	58	random	1	53	1	strangle	impersonal	k	No	7.04664727784876	N/A	-1	0.812293650793651	0.0340138088006348	0.375412698412698	-1	1	FALSE	-0.624587301587302	1	-0.0807119188551564	7.12735919670391	0.35
0.35	a thief	a homeless adult	58	random	1	175	1	strangle	personal	k	No	6.8596149036542	N/A	-1	0.812293650793651	0.0340138088006348	0.375412698412698	-1	1	FALSE	-0.624587301587302	1	0.0576316038279279	6.80198329982627	0.35
0.35	a gang member	a nun	58	random	1	70	1	strangle	impersonal	k	No	6.86484777797086	N/A	-1	0.159852459016393	0.032052520985684	0.319704918032787	-1	1	FALSE	-0.680295081967213	1	-0.216255383252786	7.08110316122365	0.35
0.35	an assassin	a billionaire	58	random	1	195	1	unidentified	impersonal	k	No	6.84906628263346	N/A	-1	0.829521367521368	0.0366999445759961	0.340957264957265	-1	1	FALSE	-0.659042735042735	1	0.0989877426699737	6.75007853996348	0.35
0.35	an astronaut	a convict	58	random	1	29	1	strangle	impersonal	k	No	6.76272950693188	N/A	-1	0.175218045112782	0.0339296475350126	0.350436090225564	1	0	TRUE	0.649563909774436	0	-0.430447191462883	7.19317669839476	0.35
0.35	an adult	a convict	58	random	1	61	1	unidentified	personal	k	No	6.75925527066369	N/A	-1	0.163779527559055	0.0324434073075244	0.32755905511811	1	0	TRUE	0.67244094488189	0	-0.34629886075848	7.10555413142217	0.35
0.35	an addict	an orphan	58	random	1	194	1	strangle	impersonal	k	No	6.84268328223842	N/A	-1	0.167077586206897	0.0340002823946035	0.334155172413793	-1	1	FALSE	-0.665844827586207	1	0.0900189363152668	6.75266434592316	0.35
0.35	a mentor	a convict	58	random	1	21	1	unidentified	personal	k	No	6.91174730025167	N/A	-1	0.158511450381679	0.0320277711300361	0.317022900763359	1	0	TRUE	0.682977099236641	0	-0.303503353895247	7.21525065414692	0.35
0.45	a homeless adult	a convict	58	random	1	11	1	unidentified	impersonal	k	No	6.9555926083963	N/A	-1	0.209544117647059	0.0346042756049914	0.419088235294118	1	0	TRUE	0.580911764705882	0	-0.28734577293681	7.24293838133311	0.45
0.45	a congressman	an assassin	58	random	1	43	1	unidentified	impersonal	k	No	7.16162200293919	N/A	-1	0.767817391304348	0.0394308863049614	0.464365217391304	1	0	TRUE	0.535634782608696	0	0.0069123528060695	7.15470965013312	0.45
0.45	a thief	a celebrity	58	random	1	239	1	unidentified	impersonal	k	No	6.70686233660275	N/A	-1	0.765432432432432	0.0413755093653157	0.469135135135135	-1	1	FALSE	-0.530864864864865	1	0.0695843338059596	6.63727800279679	0.45
0.45	a pedophile	a thief	58	random	1	19	1	unidentified	impersonal	k	No	7.5963923040642	N/A	-1	0.206731707317073	0.0368835162826901	0.413463414634146	-1	1	FALSE	-0.586536585365854	1	0.375612584849539	7.22077971921466	0.45
0.45	a congressman	a soldier	58	random	1	45	1	strangle	impersonal	k	No	6.66949808985788	N/A	-1	0.234396396396396	0.0407064593659514	0.468792792792793	-1	1	FALSE	-0.531207207207207	1	-0.479733086102835	7.14923117596071	0.45
0.45	a nun	a convict	58	random	1	137	1	unidentified	impersonal	k	No	6.72743172485086	N/A	-1	0.206212121212121	0.0339590832478958	0.412424242424242	1	0	TRUE	0.587575757575758	0	-0.17427273560105	6.9017044604519	0.45
0.45	a thief	a rapist	58	random	1	188	1	strangle	personal	k	No	7.16780918431644	N/A	-1	0.230256	0.0376549646177016	0.460512	1	0	TRUE	0.539488	0	0.399609187481104	6.76819999683534	0.45
