overlapRound	Item1	Item2	sn	cond	sess	trial	trial_type	title	typeOfScen	keybResp	keyDef	keybRT	rtBeep	rtDeadline	averageP	sdp	overlap	direct.xVy	correct	targetPresent	dirOverlap	correct01	res.RT	fit.RT	overlapRoundSN
0.05	a rapist	an adult	15	random	1	76	1	strangle	impersonal	d	No	7.84619881549743	N/A	-1	0.0275799614643545	0.00706497459018712	0.0551599229287091	-1	1	FALSE	-0.944840077071291	1	-0.0928335053173035	7.93903232081473	0.05
0.05	a nun	a rapist	15	random	1	77	1	strangle	personal	k	Yes	8.00469951054955	N/A	-1	0.965959016393443	0.0151617466576712	0.0680819672131148	1	1	TRUE	0.931918032786885	1	0.0671839672748367	7.93751554327471	0.05
0.05	a rapist	a college student	15	random	1	196	1	strangle	personal	d	No	7.83518375526675	N/A	-1	0.0190889830508475	0.0118794054974102	0.0381779661016949	-1	1	FALSE	-0.961822033898305	1	0.0781647392521209	7.75701901601463	0.05
0.05	a mentor	a rapist	15	random	1	177	1	unidentified	impersonal	k	Yes	7.33693691370762	N/A	-1	0.98072131147541	0.0121183521958367	0.0385573770491803	1	1	TRUE	0.96144262295082	1	-0.448900875567023	7.78583778927464	0.05
0.05	an astronaut	a rapist	15	random	1	180	1	strangle	impersonal	k	Yes	7.30518821539304	N/A	-1	0.980284552845528	0.0116018607761397	0.0394308943089432	1	1	TRUE	0.960569105691057	1	-0.476099241261602	7.78128745665464	0.05
0.05	a mentor	a terrorist	15	random	1	23	1	strangle	personal	k	Yes	7.47420480649612	N/A	-1	0.981086206896552	0.0116049218212286	0.0378275862068966	1	1	TRUE	0.962172413793103	1	-0.545216723938626	8.01942153043475	0.05
0.05	a rapist	an orphan	15	random	1	108	1	unidentified	impersonal	d	No	7.30586003268401	N/A	-1	0.0118041666666667	0.00937284342896777	0.0236083333333333	-1	1	FALSE	-0.976391666666667	1	-0.584635406850681	7.89049543953469	0.05
0.05	a college student	a terrorist	15	random	1	47	1	strangle	personal	k	Yes	7.04925484125584	N/A	-1	0.980799107142857	0.0117922874462679	0.0384017857142858	1	1	TRUE	0.961598214285714	1	-0.933764028218896	7.98301886947473	0.05
0.05	a rapist	an astronaut	15	random	1	102	1	strangle	impersonal	d	No	7.69575799055476	N/A	-1	0.0205284552845528	0.0114251504895455	0.0410569105691057	-1	1	FALSE	-0.958943089430894	1	-0.203838114219933	7.8995961047747	0.05
0.05	a pedophile	a college student	15	random	1	167	1	unidentified	impersonal	d	No	7.61874237767041	N/A	-1	0.00853448275862069	0.00777160174937867	0.0170689655172414	-1	1	FALSE	-0.982931034482759	1	-0.182263187004235	7.80100556467465	0.05
0.05	a terrorist	a police officer	15	random	1	58	1	strangle	personal	d	No	7.44600149832412	N/A	-1	0.032479674796748	0.0154194704259948	0.0649593495934959	-1	1	FALSE	-0.935040650406504	1	-0.520332818210606	7.96633431653473	0.05
0.05	a pedophile	a judge	15	random	1	117	1	unidentified	impersonal	d	No	7.39264752072162	N/A	-1	0.0214237288135593	0.0121537738211755	0.0428474576271186	-1	1	FALSE	-0.957152542372881	1	-0.48419692095306	7.87684444167468	0.05
0.05	an olympian	a rapist	15	random	1	144	1	strangle	personal	k	Yes	7.81520706218909	N/A	-1	0.968265217391304	0.015292962026435	0.0634695652173913	1	1	TRUE	0.936530434782609	1	-0.0206843859055768	7.83589144809466	0.05
0.05	a pedophile	an astronaut	15	random	1	168	1	unidentified	personal	d	No	7.36833968631138	N/A	-1	0.00934166666666667	0.00800512761792657	0.0186833333333334	-1	1	FALSE	-0.981316666666667	1	-0.431149100823267	7.79948878713465	0.05
0.05	a terrorist	an adult	15	random	1	2	1	strangle	personal	d	No	8.72712991524317	N/A	-1	0.0292816764132554	0.0076787545187468	0.0585633528265107	-1	1	FALSE	-0.941436647173489	1	0.675856056468401	8.05127385877477	0.05
0.05	a rapist	an olympian	15	random	1	6	1	unidentified	impersonal	d	No	8.38617292897783	N/A	-1	0.0322869565217391	0.0151979644584838	0.0645739130434783	-1	1	FALSE	-0.935426086956522	1	0.340966180363071	8.04520674861476	0.05
0.05	a terrorist	an astronaut	15	random	1	10	1	unidentified	personal	d	No	7.61283103040736	N/A	-1	0.0222008547008547	0.0132675712338883	0.0444017094017094	-1	1	FALSE	-0.955598290598291	1	-0.426308608047403	8.03913963845476	0.05
0.05	a pedophile	a soldier	15	random	1	192	1	unidentified	impersonal	d	No	7.61085279039525	N/A	-1	0.00576068376068376	0.0065973816954036	0.0115213675213676	-1	1	FALSE	-0.988478632478632	1	-0.15223333577938	7.76308612617463	0.05
0.05	an elderly person	a rapist	15	random	1	40	1	unidentified	personal	k	Yes	7.24279792279376	N/A	-1	0.979227173913043	0.00652288863888447	0.041545652173913	1	1	TRUE	0.958454347826087	1	-0.750838389460983	7.99363631225474	0.05
0.05	a nun	a rapist	15	random	1	59	1	strangle	impersonal	k	Yes	7.69028602067677	N/A	-1	0.965959016393443	0.0151617466576712	0.0680819672131148	1	1	TRUE	0.931918032786885	1	-0.274531518317957	7.96481753899472	0.05
0.05	a terrorist	a nun	15	random	1	124	1	strangle	personal	d	No	7.92407232492342	N/A	-1	0.0359094827586207	0.0163132531185703	0.0718189655172414	-1	1	FALSE	-0.928181034482759	1	0.0578453260287381	7.86622699889468	0.05
0.05	a police officer	a pedophile	15	random	1	116	1	unidentified	personal	k	Yes	8.02256894698825	N/A	-1	0.982615079365079	0.0109321100284515	0.0347698412698412	1	1	TRUE	0.965230158730159	1	0.14420772777357	7.87836121921468	0.05
0.05	an orphan	a pedophile	15	random	1	164	1	strangle	personal	k	Yes	7.26612877955645	N/A	-1	0.994235042735043	0.00657559780520727	0.0115299145299146	1	1	TRUE	0.988470085470085	1	-0.5394271177382	7.80555589729465	0.05
0.05	a terrorist	an adult	15	random	1	11	1	strangle	impersonal	d	No	8.31139827843664	N/A	-1	0.0292816764132554	0.0076787545187468	0.0585633528265107	-1	1	FALSE	-0.941436647173489	1	0.273775417521883	8.03762286091476	0.05
0.05	a homeless adult	a pedophile	15	random	1	194	1	unidentified	personal	k	Yes	7.15070145759253	N/A	-1	0.978212	0.0122497801250925	0.0435760000000001	1	1	TRUE	0.956424	1	-0.609351113502103	7.76005257109463	0.05
0.05	a homeless adult	a pedophile	15	random	1	145	1	unidentified	personal	k	Yes	8.13798045445214	N/A	-1	0.978212	0.0122497801250925	0.0435760000000001	1	1	TRUE	0.956424	1	0.303605783897475	7.83437467055466	0.05
0.05	a soldier	a terrorist	15	random	1	155	1	strangle	impersonal	k	Yes	7.58578882173203	N/A	-1	0.988578947368421	0.00910707936570462	0.022842105263158	1	1	TRUE	0.977157894736842	1	-0.233418073422622	7.81920689515466	0.05
0.05	an orphan	an assassin	15	random	1	187	1	unidentified	personal	k	Yes	7.12286665859908	N/A	-1	0.96014406779661	0.0165853349477485	0.0797118644067796	1	1	TRUE	0.92028813559322	1	-0.647803355275551	7.77067001387463	0.05
0.05	a homeless adult	a terrorist	15	random	1	159	1	strangle	impersonal	k	Yes	7.88495294575981	N/A	-1	0.961235537190083	0.0159948967671267	0.0775289256198346	1	1	TRUE	0.922471074380165	1	0.0718131607651599	7.81313978499465	0.05
0.05	an adult	a pedophile	15	random	1	88	1	unidentified	personal	k	Yes	7.15617663748062	N/A	-1	0.985152131782946	0.00550562891361406	0.0296957364341086	1	1	TRUE	0.970304263565891	1	-0.764654352854089	7.9208309903347	0.05
0.05	an adult	a rapist	15	random	1	148	1	unidentified	personal	k	Yes	7.24494154633701	N/A	-1	0.972541425818882	0.00696180700031236	0.054917148362235	1	1	TRUE	0.945082851637765	1	-0.584882791597655	7.82982433793466	0.05
0.15	a celebrity	a pedophile	15	random	1	84	1	unidentified	impersonal	k	Yes	7.8659554139335	N/A	-1	0.925915178571429	0.0227875571416442	0.148169642857143	1	1	TRUE	0.851830357142857	1	-0.0609426865612049	7.92689810049471	0.15
0.15	a gang member	a soldier	15	random	1	151	1	unidentified	impersonal	d	No	7.2841348061952	N/A	-1	0.0759	0.0242128104964956	0.1518	-1	1	FALSE	-0.8482	1	-0.541139199119455	7.82527400531466	0.15
0.15	an olympian	an assassin	15	random	1	201	1	strangle	impersonal	k	Yes	7.88683299895506	N/A	-1	0.91416814159292	0.0251816114646286	0.171663716814159	1	1	TRUE	0.828336283185841	1	0.137397870640432	7.74943512831462	0.15
0.15	a billionaire	a pedophile	15	random	1	129	1	unidentified	impersonal	k	Yes	7.37274636640433	N/A	-1	0.945653153153153	0.0195557877199045	0.108693693693694	1	1	TRUE	0.891306306306306	1	-0.485896744790347	7.85864311119468	0.15
0.15	an assassin	a judge	15	random	1	28	1	unidentified	personal	d	No	8.22228507387272	N/A	-1	0.0978319327731092	0.0262375827152572	0.195663865546219	-1	1	FALSE	-0.804336134453781	1	0.21044743113797	8.01183764273475	0.15
0.15	a nun	an assassin	15	random	1	15	1	strangle	personal	k	Yes	8.76029622047005	N/A	-1	0.909179166666667	0.0251710417297026	0.181641666666667	1	1	TRUE	0.818358333333333	1	0.728740469715295	8.03155575075476	0.15
0.15	a soldier	a thief	15	random	1	65	1	strangle	impersonal	k	Yes	7.46393660446893	N/A	-1	0.94674347826087	0.0191454434156051	0.106513043478261	1	1	TRUE	0.893486956521739	1	-0.491780269285796	7.95571687375472	0.15
0.15	a billionaire	a rapist	15	random	1	101	1	strangle	impersonal	k	Yes	7.98820359702258	N/A	-1	0.931118421052632	0.0216741212562138	0.137763157894737	1	1	TRUE	0.862236842105263	1	0.0870907147078807	7.9011128823147	0.15
0.15	a billionaire	a terrorist	15	random	1	103	1	unidentified	impersonal	k	Yes	8.19395302356374	N/A	-1	0.922902777777778	0.0241744066898109	0.154194444444445	1	1	TRUE	0.845805555555555	1	0.295873696329048	7.89807932723469	0.15
0.15	an assassin	a police officer	15	random	1	172	1	unidentified	impersonal	d	No	8.02355239240435	N/A	-1	0.073488188976378	0.0224909923617257	0.146976377952756	-1	1	FALSE	-0.853023622047244	1	0.230130715429703	7.79342167697464	0.15
0.15	an orphan	a thief	15	random	1	169	1	unidentified	personal	k	Yes	8.05832730658096	N/A	-1	0.941804347826087	0.0208558763007436	0.116391304347826	1	1	TRUE	0.883608695652174	1	0.260355296986311	7.79797200959465	0.15
0.15	a rapist	a celebrity	15	random	1	52	1	unidentified	impersonal	d	No	7.53262361878879	N/A	-1	0.0927173913043478	0.0251320850171983	0.185434782608696	-1	1	FALSE	-0.814565217391304	1	-0.442811362985942	7.97543498177473	0.15
0.15	a college student	a gang member	15	random	1	152	1	strangle	impersonal	k	Yes	7.95050243480885	N/A	-1	0.900119469026549	0.0265201150219073	0.199761061946903	1	1	TRUE	0.800238938053097	1	0.126745207034192	7.82375722777466	0.15
0.15	a gang member	an orphan	15	random	1	66	1	unidentified	impersonal	d	No	7.15070145759253	N/A	-1	0.0793217391304348	0.0243570820325199	0.15864347826087	-1	1	FALSE	-0.84135652173913	1	-0.803498638622194	7.95420009621472	0.15
0.15	a celebrity	a rapist	15	random	1	57	1	strangle	personal	k	Yes	7.74153358928183	N/A	-1	0.908326086956522	0.0245186463423413	0.183347826086957	1	1	TRUE	0.816652173913043	1	-0.226317504792898	7.96785109407473	0.15
0.15	a thief	a college student	15	random	1	64	1	unidentified	personal	d	No	7.4764723811639	N/A	-1	0.0824122807017544	0.0239731304522996	0.164824561403509	-1	1	FALSE	-0.835175438596491	1	-0.480761270130816	7.95723365129472	0.15
0.15	an astronaut	a thief	15	random	1	154	1	unidentified	impersonal	k	Yes	7.80913539812054	N/A	-1	0.906733050847458	0.0259515787639947	0.186533898305085	1	1	TRUE	0.813466101694915	1	-0.0115882745741196	7.82072367269466	0.15
0.15	a thief	a mentor	15	random	1	143	1	strangle	personal	d	No	7.98344006300654	N/A	-1	0.0851737288135593	0.0246253796226459	0.170347457627119	-1	1	FALSE	-0.829652542372881	1	0.146031837371877	7.83740822563467	0.15
0.15	a soldier	a thief	15	random	1	22	1	strangle	personal	k	Yes	8.25971696102152	N/A	-1	0.94674347826087	0.0191454434156051	0.106513043478261	1	1	TRUE	0.893486956521739	1	0.238778653046772	8.02093830797475	0.15
0.15	an assassin	a college student	15	random	1	174	1	strangle	impersonal	d	No	7.50878717063428	N/A	-1	0.056301724137931	0.0205350060973244	0.112603448275862	-1	1	FALSE	-0.887396551724138	1	-0.281600951260367	7.79038812189464	0.15
0.15	an assassin	an elderly person	15	random	1	150	1	unidentified	personal	d	No	7.76472054477148	N/A	-1	0.060075327510917	0.0111118941206632	0.120150655021834	-1	1	FALSE	-0.879849344978166	1	-0.0620702380831829	7.82679078285466	0.15
0.15	an astronaut	a thief	15	random	1	50	1	unidentified	personal	k	Yes	7.8188324438034	N/A	-1	0.906733050847458	0.0259515787639947	0.186533898305085	1	1	TRUE	0.813466101694915	1	-0.159636093051327	7.97846853685473	0.15
0.15	a homeless adult	an assassin	15	random	1	160	1	strangle	personal	k	Yes	7.21376830811864	N/A	-1	0.907048	0.0241182791133071	0.185904	1	1	TRUE	0.814096	1	-0.597854699336011	7.81162300745465	0.15
0.15	an elderly person	a thief	15	random	1	80	1	strangle	impersonal	k	Yes	7.91498300584839	N/A	-1	0.92030701754386	0.0125005564843991	0.159385964912281	1	1	TRUE	0.840614035087719	1	-0.0179822048063158	7.93296521065471	0.15
0.15	a thief	a police officer	15	random	1	67	1	unidentified	personal	d	No	7.49942329059223	N/A	-1	0.0970201612903226	0.0256356807829676	0.194040322580645	-1	1	FALSE	-0.805959677419355	1	-0.45326002808249	7.95268331867472	0.15
0.25	a gang member	an elderly person	15	random	1	149	1	unidentified	personal	d	No	8.0179667034936	N/A	-1	0.102130769230769	0.0140493864603666	0.204261538461538	-1	1	FALSE	-0.795738461538462	1	0.189659143098938	7.82830756039466	0.25
0.25	a thief	an olympian	15	random	1	193	1	strangle	personal	k	Yes	8.04430540699064	N/A	-1	0.119684684684685	0.0305500719590433	0.239369369369369	-1	0	FALSE	-0.760630630630631	0	0.282736058356008	7.76156934863463	0.25
0.25	an orphan	a convict	15	random	1	87	1	strangle	impersonal	k	Yes	7.36454701425564	N/A	-1	0.88141935483871	0.0293598654617309	0.237161290322581	1	1	TRUE	0.762838709677419	1	-0.557800753619063	7.9223477678747	0.25
0.25	a thief	an olympian	15	random	1	120	1	unidentified	personal	d	No	7.79852305362521	N/A	-1	0.119684684684685	0.0305500719590433	0.239369369369369	-1	1	FALSE	-0.760630630630631	1	-0.0737710554294756	7.87229410905468	0.25
0.25	a gang member	an olympian	15	random	1	79	1	strangle	impersonal	d	No	8.52595469708481	N/A	-1	0.137940909090909	0.0315491109243846	0.275881818181818	-1	1	FALSE	-0.724118181818182	1	0.591472708890099	7.93448198819471	0.25
0.25	a celebrity	a terrorist	15	random	1	74	1	unidentified	personal	k	Yes	7.20934025660291	N/A	-1	0.899215596330275	0.0264266960166984	0.20156880733945	1	1	TRUE	0.79843119266055	1	-0.732725619291804	7.94206587589471	0.25
0.25	a gang member	a mentor	15	random	1	16	1	strangle	personal	d	No	7.72973533138505	N/A	-1	0.104876068376068	0.0274149454280561	0.209752136752137	-1	1	FALSE	-0.790247863247863	1	-0.300303641829705	8.03003897321476	0.25
0.25	a gang member	a nun	15	random	1	126	1	strangle	personal	d	No	7.34148385236316	N/A	-1	0.144247863247863	0.0320785723788157	0.288495726495727	-1	1	FALSE	-0.711504273504273	1	-0.521709591451517	7.86319344381468	0.25
0.25	a judge	a thief	15	random	1	179	1	unidentified	personal	k	Yes	8.02355239240435	N/A	-1	0.873452586206897	0.029118207322448	0.253094827586207	1	1	TRUE	0.746905172413793	1	0.240748158209708	7.78280423419464	0.25
0.25	an assassin	a billionaire	15	random	1	153	1	unidentified	personal	d	No	7.57250298502038	N/A	-1	0.131491071428571	0.0294661286793242	0.262982142857143	-1	1	FALSE	-0.737017857142857	1	-0.249737465214274	7.82224045023466	0.25
0.25	a thief	a homeless adult	15	random	1	83	1	strangle	impersonal	d	No	8.05547514175727	N/A	-1	0.127032520325203	0.0283436008376258	0.254065040650407	-1	1	FALSE	-0.745934959349593	1	0.127060263722566	7.92841487803471	0.25
0.25	a judge	a thief	15	random	1	138	1	unidentified	impersonal	k	Yes	8.35490952835879	N/A	-1	0.873452586206897	0.029118207322448	0.253094827586207	1	1	TRUE	0.746905172413793	1	0.509917415024122	7.84499211333467	0.25
0.25	a soldier	an addict	15	random	1	183	1	unidentified	impersonal	k	Yes	7.93522953981691	N/A	-1	0.856106194690265	0.0329944935457221	0.287787610619469	1	1	TRUE	0.712212389380531	1	0.15849241578227	7.77673712403464	0.25
0.25	an olympian	a gang member	15	random	1	115	1	strangle	personal	d	No	8.52535975408263	N/A	-1	0.861522727272727	0.0322788739998538	0.276954545454545	1	0	TRUE	0.723045454545455	0	0.645481757327946	7.87987799675468	0.25
0.25	a convict	an elderly person	15	random	1	44	1	unidentified	personal	d	No	7.66293785046154	N/A	-1	0.148948387096774	0.0170059005642515	0.297896774193548	-1	1	FALSE	-0.702103225806452	1	-0.3246313516332	7.98756920209474	0.25
0.25	an astronaut	a gang member	15	random	1	51	1	unidentified	personal	k	Yes	7.33106030521863	N/A	-1	0.890813559322034	0.0272993462087875	0.218372881355932	1	1	TRUE	0.781627118644068	1	-0.645891454096098	7.97695175931473	0.25
0.25	a pedophile	an addict	15	random	1	100	1	unidentified	personal	d	No	7.50549227473742	N/A	-1	0.122918103448276	0.0287109344910043	0.245836206896552	-1	1	FALSE	-0.754163793103448	1	-0.397137385117272	7.9026296598547	0.25
0.35	an astronaut	a convict	15	random	1	43	1	strangle	personal	k	Yes	7.33106030521863	N/A	-1	0.837204724409449	0.033564043944121	0.325590551181102	1	1	TRUE	0.674409448818898	1	-0.658025674416104	7.98908597963474	0.35
0.35	a police officer	a convict	15	random	1	165	1	strangle	personal	k	Yes	7.22620901010067	N/A	-1	0.836296992481203	0.0303486496520387	0.327406015037594	1	1	TRUE	0.672593984962406	1	-0.577830109653978	7.80403911975465	0.35
0.35	a celebrity	an assassin	15	random	1	8	1	strangle	impersonal	k	Yes	8.0471895621705	N/A	-1	0.835955752212389	0.0355618775653949	0.328088495575221	1	1	TRUE	0.671911504424779	1	0.0050163686357406	8.04217319353476	0.35
0.35	a thief	a billionaire	15	random	1	181	1	unidentified	personal	k	Yes	7.99967857949945	N/A	-1	0.161711009174312	0.0342568001950382	0.323422018348624	-1	0	FALSE	-0.676577981651376	0	0.219907900384812	7.77977067911464	0.35
0.35	a gang member	a billionaire	15	random	1	61	1	unidentified	personal	d	No	8.3187422526924	N/A	-1	0.183834862385321	0.0354542830353056	0.367669724770642	-1	1	FALSE	-0.632330275229358	1	0.356958268777676	7.96178398391472	0.35
0.35	an addict	a rapist	15	random	1	111	1	strangle	impersonal	k	Yes	7.80506704425849	N/A	-1	0.849046218487395	0.0305061651176638	0.30190756302521	1	1	TRUE	0.69809243697479	1	-0.0808780626561984	7.88594510691469	0.35
0.35	an olympian	a convict	15	random	1	114	1	strangle	impersonal	d	No	8.22362717580548	N/A	-1	0.808254166666667	0.0347621489662355	0.383491666666667	1	0	TRUE	0.616508333333333	0	0.342232401510797	7.88139477429469	0.35
0.45	a congressman	a soldier	15	random	1	141	1	strangle	impersonal	d	No	8.45233461906774	N/A	-1	0.230406542056075	0.0397677487966953	0.46081308411215	-1	1	FALSE	-0.53918691588785	1	0.611892838353075	7.84044178071467	0.45
0.45	a college student	an addict	15	random	1	128	1	strangle	personal	k	Yes	7.93272102748195	N/A	-1	0.794054054054054	0.0376921308699716	0.411891891891892	1	1	TRUE	0.588108108108108	1	0.0725611387472723	7.86015988873468	0.45
0.45	a pedophile	a convict	15	random	1	92	1	strangle	personal	d	No	7.34794382314869	N/A	-1	0.21284765625	0.0315709109017175	0.4256953125	-1	1	FALSE	-0.5743046875	1	-0.566820057026014	7.9147638801747	0.45
0.45	an adult	an addict	15	random	1	131	1	strangle	personal	d	No	8.83433697401764	N/A	-1	0.7682021484375	0.0188494078646435	0.463595703125	1	0	TRUE	0.536404296875	0	0.978727417902963	7.85560955611467	0.45
0.45	a congressman	a thief	15	random	1	19	1	unidentified	personal	d	No	8.27359179819963	N/A	-1	0.766417431192661	0.0397444250880456	0.467165137614679	1	0	TRUE	0.532834862385321	0	0.248103157604879	8.02548864059475	0.45
0.45	an addict	an astronaut	15	random	1	96	1	unidentified	impersonal	d	No	7.41878088275079	N/A	-1	0.230728448275862	0.0375081446471095	0.461456896551724	-1	1	FALSE	-0.538543103448276	1	-0.489915887263904	7.9086967700147	0.45
0.45	a convict	a pedophile	15	random	1	90	1	unidentified	impersonal	k	Yes	7.86787149039632	N/A	-1	0.7879765625	0.0328174515649382	0.424046875	1	1	TRUE	0.575953125	1	-0.049925944858381	7.9177974352547	0.45
0.45	a gang member	a celebrity	15	random	1	197	1	strangle	personal	k	Yes	8.43901541035221	N/A	-1	0.223322727272727	0.0368517155281422	0.446645454545455	-1	0	FALSE	-0.553354545454545	0	0.683513171877587	7.75550223847463	0.45
0.45	a soldier	a congressman	15	random	1	99	1	strangle	personal	k	Yes	7.53422832627409	N/A	-1	0.769023364485981	0.040655992993165	0.461953271028037	1	1	TRUE	0.538046728971963	1	-0.369918111120607	7.9041464373947	0.45
0.45	a nun	a convict	15	random	1	73	1	unidentified	impersonal	k	Yes	7.28069719538474	N/A	-1	0.798066929133858	0.0345168471572989	0.403866141732284	1	1	TRUE	0.596133858267716	1	-0.662885458049974	7.94358265343471	0.45
0.45	a convict	a homeless adult	15	random	1	140	1	unidentified	impersonal	d	No	7.93164402145431	N/A	-1	0.202375	0.0343857365063947	0.40475	-1	1	FALSE	-0.59525	1	0.0896854631996433	7.84195855825467	0.45
0.45	a convict	a rapist	15	random	1	95	1	unidentified	impersonal	k	Yes	8.50633444808136	N/A	-1	0.761819230769231	0.0339813146381572	0.476361538461539	1	1	TRUE	0.523638461538461	1	0.596120900526662	7.9102135475547	0.45
0.45	a judge	a convict	15	random	1	72	1	unidentified	impersonal	k	Yes	8.22817689595132	N/A	-1	0.794604	0.034974195893235	0.410792	1	1	TRUE	0.589208	1	0.283077464976604	7.94509943097472	0.45
0.55	an addict	a nun	15	random	1	158	1	strangle	personal	d	No	8.14931284363534	N/A	-1	0.2795	0.0404507526511449	0.559	-1	1	FALSE	-0.441	1	0.33465628110069	7.81465656253465	0.55
0.55	a convict	a celebrity	15	random	1	106	1	strangle	impersonal	k	Yes	8.26565016558033	N/A	-1	0.283294117647059	0.0396838513036974	0.566588235294118	-1	0	FALSE	-0.433411764705882	0	0.372121170965638	7.89352899461469	0.55
0.55	a convict	a terrorist	15	random	1	200	1	strangle	impersonal	k	Yes	8.14206328310415	N/A	-1	0.739915322580645	0.0357414968565616	0.52016935483871	1	1	TRUE	0.47983064516129	1	0.391111377249522	7.75095190585462	0.55
0.55	an orphan	a celebrity	15	random	1	125	1	strangle	impersonal	k	Yes	7.53636393840451	N/A	-1	0.708559633027523	0.0412241169424387	0.582880733944954	1	1	TRUE	0.417119266055046	1	-0.328346282950167	7.86471022135468	0.55
0.55	a congressman	a gang member	15	random	1	89	1	strangle	personal	k	Yes	7.32580750259577	N/A	-1	0.738703703703704	0.0396502168720051	0.522592592592592	1	1	TRUE	0.477407407407408	1	-0.59350671019893	7.9193142127947	0.55
0.55	an addict	an olympian	15	random	1	185	1	strangle	personal	k	Yes	8.30573114487587	N/A	-1	0.271800925925926	0.0409554991969504	0.543601851851852	-1	0	FALSE	-0.456398148148148	0	0.53202757592123	7.77370356895464	0.55
0.55	an orphan	a congressman	15	random	1	34	1	unidentified	personal	k	Yes	7.03702761468628	N/A	-1	0.74442523364486	0.0414497920026441	0.51114953271028	1	1	TRUE	0.48885046728972	1	-0.965709362808466	8.00273697749474	0.55
0.55	a soldier	a nun	15	random	1	202	1	unidentified	impersonal	k	Yes	7.8087293067444	N/A	-1	0.707219827586207	0.0405942204974411	0.585560344827586	1	1	TRUE	0.414439655172414	1	0.0608109559697759	7.74791835077462	0.55
0.55	a judge	a soldier	15	random	1	191	1	strangle	impersonal	d	No	8.16621626859214	N/A	-1	0.295882608695652	0.0400262064299244	0.591765217391304	-1	1	FALSE	-0.408234782608696	1	0.401613364877512	7.76460290371463	0.55
0.55	a thief	a pedophile	15	random	1	123	1	strangle	personal	k	Yes	7.2868764117507	N/A	-1	0.716415966386555	0.0368396177555017	0.567168067226891	1	1	TRUE	0.432831932773109	1	-0.58086736468398	7.86774377643468	0.55
0.55	a soldier	a celebrity	15	random	1	33	1	unidentified	impersonal	k	Yes	7.85166117788927	N/A	-1	0.742779816513761	0.0393636151264116	0.514440366972477	1	1	TRUE	0.485559633027523	1	-0.152592577145478	8.00425375503474	0.55
0.55	an olympian	an addict	15	random	1	137	1	unidentified	personal	d	No	7.99361999482774	N/A	-1	0.730023148148148	0.0421277415067279	0.539953703703704	1	0	TRUE	0.460046296296296	0	0.147111103953075	7.84650889087467	0.55
0.55	a homeless adult	an addict	15	random	1	20	1	strangle	impersonal	d	No	8.77183540978982	N/A	-1	0.7169875	0.040247147365565	0.566025	1	0	TRUE	0.433975	0	0.747863546735065	8.02397186305475	0.55
0.55	an addict	a homeless adult	15	random	1	78	1	unidentified	personal	d	No	8.08301991917133	N/A	-1	0.284108333333333	0.0409937749763184	0.568216666666667	-1	1	FALSE	-0.431783333333333	1	0.147021153436618	7.93599876573471	0.55
0.65	a billionaire	a soldier	15	random	1	60	1	unidentified	personal	d	No	8.29404964010203	N/A	-1	0.334578703703704	0.0446166404071383	0.669157407407407	-1	1	FALSE	-0.330842592592593	1	0.330748878647304	7.96330076145472	0.65
0.65	a rapist	a thief	15	random	1	118	1	strangle	impersonal	d	No	7.7931743471892	N/A	-1	0.310797520661157	0.0376497410244544	0.621595041322314	-1	1	FALSE	-0.378404958677686	1	-0.082153316945478	7.87532766413468	0.65
0.65	a congressman	a convict	15	random	1	112	1	unidentified	personal	d	No	7.62021477057445	N/A	-1	0.681478813559322	0.041123956698571	0.637042372881356	1	0	TRUE	0.362957627118644	0	-0.264213558800233	7.88442832937469	0.65
0.65	an astronaut	a soldier	15	random	1	166	1	strangle	impersonal	d	No	8.06620756800626	N/A	-1	0.323662393162393	0.042630500836228	0.647324786324786	-1	1	FALSE	-0.352675213675214	1	0.263685225791616	7.80252234221465	0.65
0.65	a billionaire	an addict	15	random	1	14	1	strangle	impersonal	d	No	7.89618060861549	N/A	-1	0.693504672897196	0.0446410072611002	0.612990654205607	1	0	TRUE	0.387009345794393	0	-0.136891919679265	8.03307252829476	0.65
0.65	a billionaire	an addict	15	random	1	69	1	unidentified	impersonal	d	No	8.16280135349207	N/A	-1	0.693504672897196	0.0446410072611002	0.612990654205607	1	0	TRUE	0.387009345794393	0	0.213151589897355	7.94964976359472	0.65
0.65	an orphan	a homeless adult	15	random	1	127	1	strangle	impersonal	k	Yes	8.09101504171053	N/A	-1	0.683578512396694	0.0418836377403195	0.632842975206612	1	1	TRUE	0.367157024793388	1	0.229338375435854	7.86167666627468	0.65
0.65	a terrorist	a thief	15	random	1	54	1	strangle	personal	d	No	8.40916244720253	N/A	-1	0.337430434782609	0.0391988296964695	0.674860869565217	-1	1	FALSE	-0.325139130434783	1	0.436761020507805	7.97240142669473	0.65
0.65	a college student	a celebrity	15	random	1	184	1	strangle	impersonal	k	Yes	7.26682734752059	N/A	-1	0.654252336448598	0.0455003699407605	0.691495327102804	1	1	TRUE	0.308504672897196	1	-0.508392998974045	7.77522034649464	0.65
0.65	an elderly person	a congressman	15	random	1	38	1	unidentified	impersonal	k	Yes	7.26332961747684	N/A	-1	0.695194196428571	0.0222165789425708	0.609611607142857	1	1	TRUE	0.390388392857143	1	-0.733340249857903	7.99666986733474	0.65
0.65	an adult	a congressman	15	random	1	17	1	unidentified	impersonal	d	No	8.97195627124569	N/A	-1	0.659266798418972	0.021041067988562	0.681466403162055	1	0	TRUE	0.318533596837945	0	0.943434075570933	8.02852219567476	0.65
0.65	a gang member	a terrorist	15	random	1	29	1	strangle	impersonal	k	Yes	7.95822719232231	N/A	-1	0.689882608695652	0.0387379969712809	0.620234782608696	1	1	TRUE	0.379765217391304	1	-0.0520936728724343	8.01032086519475	0.65
0.65	a pedophile	an assassin	15	random	1	204	1	strangle	impersonal	d	No	7.7698009960039	N/A	-1	0.342706611570248	0.0380370737035911	0.685413223140496	-1	1	FALSE	-0.314586776859504	1	0.0249162003092743	7.74488479569462	0.65
0.65	a mentor	a congressman	15	random	1	122	1	unidentified	impersonal	k	Yes	7.77485576666552	N/A	-1	0.681118181818182	0.0420290581739252	0.637763636363636	1	1	TRUE	0.362236363636364	1	-0.0944047873091601	7.86926055397468	0.65
0.65	a thief	a rapist	15	random	1	24	1	unidentified	personal	k	Yes	7.36833968631138	N/A	-1	0.687173553719008	0.0368607910209597	0.625652892561984	1	1	TRUE	0.374347107438016	1	-0.649565066583369	8.01790475289475	0.65
0.65	an orphan	a judge	15	random	1	70	1	strangle	impersonal	k	Yes	8.06652149046999	N/A	-1	0.66924347826087	0.0423129119610609	0.661513043478261	1	1	TRUE	0.338486956521739	1	0.118388504415276	7.94813298605472	0.65
0.75	a billionaire	an orphan	15	random	1	62	1	unidentified	personal	d	No	8.20985248130127	N/A	-1	0.364518518518519	0.0453373377965481	0.729037037037037	-1	1	FALSE	-0.270962962962963	1	0.24958527492655	7.96026720637472	0.75
0.75	a congressman	an astronaut	15	random	1	147	1	strangle	impersonal	d	No	8.17807746384961	N/A	-1	0.351563636363636	0.0449456598989125	0.703127272727273	-1	1	FALSE	-0.296872727272727	1	0.346736348374945	7.83134111547466	0.75
0.75	an elderly person	a nun	15	random	1	12	1	unidentified	personal	d	No	8.82907995256484	N/A	-1	0.620566739606127	0.021829831438993	0.758866520787746	1	0	TRUE	0.241133479212254	0	0.792973869190078	8.03610608337476	0.75
0.75	an astronaut	a celebrity	15	random	1	45	1	strangle	personal	k	Yes	7.2115567333138	N/A	-1	0.613276785714286	0.0449190929962347	0.773446428571429	1	1	TRUE	0.226553571428571	1	-0.774495691240933	7.98605242455473	0.75
0.75	a college student	a homeless adult	15	random	1	157	1	unidentified	impersonal	d	No	7.36137542897735	N/A	-1	0.6148375	0.0433045367650112	0.770325	1	0	TRUE	0.229675	0	-0.454797911097307	7.81617334007466	0.75
0.75	a celebrity	an adult	15	random	1	170	1	strangle	personal	d	No	7.44658509915773	N/A	-1	0.38428937007874	0.0208991488636146	0.76857874015748	-1	1	FALSE	-0.23142125984252	1	-0.349870132896921	7.79645523205465	0.75
0.75	a college student	a judge	15	random	1	98	1	unidentified	personal	k	Yes	8.22389538017882	N/A	-1	0.607008849557522	0.0445193822617163	0.785982300884956	1	1	TRUE	0.214017699115044	1	0.318232165244123	7.9056632149347	0.75
0.75	a college student	a homeless adult	15	random	1	21	1	unidentified	impersonal	d	No	9.00785692335828	N/A	-1	0.6148375	0.0433045367650112	0.770325	1	0	TRUE	0.229675	0	0.985401837843524	8.02245508551475	0.75
0.75	a congressman	an olympian	15	random	1	119	1	strangle	impersonal	d	No	8.25218543600333	N/A	-1	0.387655339805825	0.0473557850919396	0.77531067961165	-1	1	FALSE	-0.22468932038835	1	0.378374549408646	7.87381088659468	0.75
0.75	a celebrity	an adult	15	random	1	173	1	unidentified	personal	d	No	7.44541755670169	N/A	-1	0.38428937007874	0.0208991488636146	0.76857874015748	-1	1	FALSE	-0.23142125984252	1	-0.346487342732957	7.79190489943464	0.75
0.75	an assassin	a rapist	15	random	1	178	1	unidentified	impersonal	k	Yes	7.46164039220858	N/A	-1	0.630701612903226	0.0362965119344826	0.738596774193548	1	1	TRUE	0.261403225806452	1	-0.322680619526065	7.78432101173464	0.75
0.75	an orphan	a billionaire	15	random	1	156	1	strangle	personal	k	Yes	7.76174498465891	N/A	-1	0.639393518518519	0.0465765437579989	0.721212962962963	1	1	TRUE	0.278787037037037	1	-0.0559451329557432	7.81769011761466	0.75
0.75	a soldier	an elderly person	15	random	1	135	1	strangle	personal	k	Yes	8.12237124340655	N/A	-1	0.600103524229075	0.0234813372027686	0.79979295154185	1	1	TRUE	0.20020704845815	1	0.272828797451882	7.84954244595467	0.75
0.75	an olympian	a congressman	15	random	1	49	1	strangle	personal	d	No	8.24143968982973	N/A	-1	0.613165048543689	0.0468545484351678	0.773669902912621	1	0	TRUE	0.226330097087379	0	0.261454375434999	7.97998531439473	0.75
0.75	a judge	a congressman	15	random	1	97	1	unidentified	personal	d	No	7.90211754627645	N/A	-1	0.605087962962963	0.0461190204605314	0.789824074074074	1	0	TRUE	0.210175925925926	0	-0.00506244619825018	7.9071799924747	0.75
0.75	a judge	a college student	15	random	1	32	1	unidentified	personal	d	No	8.0507033814703	N/A	-1	0.395283185840708	0.0441454528969037	0.790566371681416	-1	1	FALSE	-0.209433628318584	1	0.0449328488955553	8.00577053257474	0.75
0.75	a college student	a nun	15	random	1	199	1	strangle	impersonal	d	No	8.31776616671934	N/A	-1	0.606108695652174	0.0443335330650003	0.787782608695652	1	0	TRUE	0.212217391304348	0	0.565297483324718	7.75246868339463	0.75
0.75	a college student	a nun	15	random	1	41	1	strangle	impersonal	d	No	7.95402108727804	N/A	-1	0.606108695652174	0.0443335330650003	0.787782608695652	1	0	TRUE	0.212217391304348	0	-0.0380984474367004	7.99211953471474	0.75
0.75	an assassin	a convict	15	random	1	46	1	unidentified	impersonal	d	No	7.99799931797973	N/A	-1	0.357078125	0.0382082231408529	0.71415625	-1	1	FALSE	-0.28584375	1	0.0134636709649957	7.98453564701473	0.75
0.75	a police officer	a homeless adult	15	random	1	63	1	unidentified	personal	d	No	8.53227882883428	N/A	-1	0.61175	0.0394952289872806	0.7765	1	0	TRUE	0.2235	0	0.573528399999556	7.95875042883472	0.75
0.75	an elderly person	a homeless adult	15	random	1	13	1	strangle	impersonal	d	No	8.05006542291597	N/A	-1	0.626970779220779	0.0221460065998543	0.746058441558441	1	0	TRUE	0.253941558441559	0	0.0154761170812079	8.03458930583476	0.75
0.75	an elderly person	a judge	15	random	1	134	1	strangle	personal	k	Yes	8.05801080080209	N/A	-1	0.617948351648352	0.0229250187329941	0.764103296703297	1	1	TRUE	0.235896703296703	1	0.206951577307414	7.85105922349467	0.75
0.75	an olympian	an elderly person	15	random	1	121	1	unidentified	personal	d	No	8.12058871174027	N/A	-1	0.39197	0.0237969852632372	0.78394	-1	1	FALSE	-0.21606	1	0.249811380225589	7.87077733151468	0.75
0.75	a celebrity	an astronaut	15	random	1	189	1	strangle	impersonal	d	No	8.60886037994206	N/A	-1	0.385330357142857	0.045663342680062	0.770660714285714	-1	1	FALSE	-0.229339285714286	1	0.841223921147429	7.76763645879463	0.75
0.75	an adult	a soldier	15	random	1	93	1	unidentified	personal	d	No	7.55171221535131	N/A	-1	0.355071150097466	0.0206293446386735	0.710142300194932	-1	1	FALSE	-0.289857699805068	1	-0.36153488728339	7.9132471026347	0.75
0.75	an assassin	a terrorist	15	random	1	55	1	unidentified	impersonal	k	Yes	8.68676717538769	N/A	-1	0.604275423728814	0.0397248894927789	0.791449152542373	1	1	TRUE	0.208550847457627	1	0.715882526232962	7.97088464915473	0.75
0.75	a nun	a congressman	15	random	1	198	1	unidentified	impersonal	k	Yes	8.00302866638473	N/A	-1	0.606813636363636	0.0451935355790789	0.786372727272727	1	1	TRUE	0.213627272727273	1	0.249043205450107	7.75398546093463	0.75
0.75	an orphan	an astronaut	15	random	1	26	1	unidentified	impersonal	k	Yes	8.80792062205398	N/A	-1	0.63375641025641	0.0445113904670633	0.73248717948718	1	1	TRUE	0.26751282051282	1	0.793049424239231	8.01487119781475	0.75
0.75	an assassin	a terrorist	15	random	1	81	1	unidentified	impersonal	k	Yes	8.74065669154137	N/A	-1	0.604275423728814	0.0397248894927789	0.791449152542373	1	1	TRUE	0.208550847457627	1	0.809208258426659	7.93144843311471	0.75
0.75	a billionaire	a congressman	15	random	1	30	1	unidentified	impersonal	d	No	7.75705114203201	N/A	-1	0.602108910891089	0.0482883349227384	0.795782178217822	1	0	TRUE	0.204217821782178	0	-0.251752945622732	8.00880408765475	0.75
0.75	an astronaut	an orphan	15	random	1	91	1	strangle	impersonal	d	No	7.68937110752969	N/A	-1	0.367269230769231	0.0441757937747791	0.734538461538462	-1	1	FALSE	-0.265461538461538	1	-0.226909550185012	7.9162806577147	0.75
0.75	an addict	a convict	15	random	1	31	1	strangle	personal	k	Yes	8.43468076984177	N/A	-1	0.600670731707317	0.0416802289856841	0.798658536585366	1	1	TRUE	0.201341463414634	1	0.427393459727028	8.00728731011474	0.75
0.75	a soldier	a college student	15	random	1	37	1	unidentified	impersonal	k	Yes	7.43425738213314	N/A	-1	0.613223214285714	0.043498249321036	0.773553571428572	1	1	TRUE	0.226446428571428	1	-0.563929262741605	7.99818664487474	0.75
0.85	a billionaire	a celebrity	15	random	1	42	1	strangle	personal	d	No	8.35561499576018	N/A	-1	0.564427184466019	0.047192987496258	0.871145631067961	1	0	TRUE	0.128854368932039	0	0.365012238585446	7.99060275717474	0.85
0.85	a billionaire	a college student	15	random	1	94	1	strangle	impersonal	d	No	8.02420748577858	N/A	-1	0.420061320754717	0.0487693622693302	0.840122641509434	-1	1	FALSE	-0.159877358490566	1	0.112477160683877	7.9117303250947	0.85
0.85	an olympian	an adult	15	random	1	195	1	unidentified	personal	k	Yes	7.44014668066269	N/A	-1	0.441499015748031	0.0214135628602502	0.882998031496063	-1	0	FALSE	-0.117001968503937	0	-0.31838911289194	7.75853579355463	0.85
0.85	a mentor	a billionaire	15	random	1	9	1	strangle	impersonal	k	Yes	7.93630269320196	N/A	-1	0.573068181818182	0.0456949179398052	0.853863636363636	1	1	TRUE	0.146136363636364	1	-0.104353722792801	8.04065641599476	0.85
0.85	an orphan	a mentor	15	random	1	161	1	strangle	impersonal	k	Yes	7.94236223767433	N/A	-1	0.583655172413793	0.0454549814088955	0.832689655172414	1	1	TRUE	0.167310344827586	1	0.132256007759682	7.81010622991465	0.85
0.85	a college student	an astronaut	15	random	1	104	1	unidentified	personal	d	No	7.56320059235807	N/A	-1	0.559730434782609	0.0452858686847247	0.880539130434783	1	0	TRUE	0.119460869565217	0	-0.333361957336622	7.89656254969469	0.85
0.85	a college student	an astronaut	15	random	1	133	1	strangle	personal	d	No	7.6506445514369	N/A	-1	0.559730434782609	0.0452858686847247	0.880539130434783	1	0	TRUE	0.119460869565217	0	-0.201931449597776	7.85257600103467	0.85
0.85	a police officer	an orphan	15	random	1	175	1	strangle	impersonal	k	Yes	7.61134771740362	N/A	-1	0.430333333333333	0.0433568010087536	0.860666666666667	-1	0	FALSE	-0.139333333333333	0	-0.177523626951021	7.78887134435464	0.85
0.85	a police officer	an orphan	15	random	1	18	1	strangle	personal	d	No	8.13651825211529	N/A	-1	0.430333333333333	0.0433568010087536	0.860666666666667	-1	1	FALSE	-0.139333333333333	1	0.109512833980537	8.02700541813475	0.85
0.85	a homeless adult	an adult	15	random	1	113	1	unidentified	personal	k	Yes	8.84735987547417	N/A	-1	0.419998076923077	0.0217076303985325	0.839996153846154	-1	0	FALSE	-0.160003846153846	0	0.964448323639488	7.88291155183469	0.85
0.85	a gang member	a convict	15	random	1	182	1	strangle	personal	d	No	8.39366870513074	N/A	-1	0.438968	0.0436921500956406	0.877936	-1	1	FALSE	-0.122064	1	0.615414803556102	7.77825390157464	0.85
0.85	a gang member	an assassin	15	random	1	136	1	unidentified	personal	k	Yes	7.81237820598861	N/A	-1	0.583924369747899	0.042151038517327	0.832151260504202	1	1	TRUE	0.167848739495798	1	-0.0356474624260602	7.84802566841467	0.85
0.85	an adult	an olympian	15	random	1	105	1	unidentified	personal	k	Yes	7.7596141506969	N/A	-1	0.55855905511811	0.0220073530499876	0.88288188976378	1	1	TRUE	0.11711811023622	1	-0.135431621457789	7.89504577215469	0.85
0.85	a college student	an orphan	15	random	1	142	1	strangle	impersonal	d	No	8.12799505577195	N/A	-1	0.430111607142857	0.0458748684890119	0.860223214285714	-1	1	FALSE	-0.139776785714286	1	0.28907005259728	7.83892500317467	0.85
0.85	an astronaut	an elderly person	15	random	1	5	1	unidentified	impersonal	k	Yes	8.66664714458457	N/A	-1	0.433054704595186	0.0230468942739277	0.866109409190372	-1	0	FALSE	-0.133890590809628	0	0.619923618429812	8.04672352615476	0.85
0.85	an astronaut	an elderly person	15	random	1	71	1	strangle	personal	k	Yes	7.95787735848981	N/A	-1	0.433054704595186	0.0230468942739277	0.866109409190372	-1	0	FALSE	-0.133890590809628	0	0.0112611499750965	7.94661620851472	0.85
0.85	a mentor	a nun	15	random	1	132	1	unidentified	personal	d	No	7.73892375743946	N/A	-1	0.596785714285714	0.0428575170557104	0.806428571428571	1	0	TRUE	0.193571428571429	0	-0.115169021135216	7.85409277857467	0.85
0.85	an addict	a congressman	15	random	1	85	1	unidentified	impersonal	k	Yes	8.23323750070527	N/A	-1	0.403028301886792	0.0461634183794478	0.806056603773585	-1	0	FALSE	-0.193943396226415	0	0.307856177750564	7.92538132295471	0.85
0.85	an olympian	a college student	15	random	1	110	1	unidentified	impersonal	d	No	8.0805469658245	N/A	-1	0.40400462962963	0.0450878445059497	0.808009259259259	-1	1	FALSE	-0.191990740740741	1	0.193085081369809	7.88746188445469	0.85
0.85	an astronaut	a police officer	15	random	1	190	1	unidentified	impersonal	d	No	8.3296580675694	N/A	-1	0.44175	0.0424221463276348	0.8835	-1	1	FALSE	-0.1165	1	0.563538386314764	7.76611968125463	0.85
0.85	an adult	a nun	15	random	1	36	1	unidentified	impersonal	d	No	7.9124231214737	N/A	-1	0.572833980582524	0.0209630705513562	0.854332038834951	1	0	TRUE	0.145667961165049	0	-0.0872803009410359	7.99970342241474	0.85
0.85	a police officer	an olympian	15	random	1	176	1	unidentified	personal	k	Yes	8.49678638163858	N/A	-1	0.594406779661017	0.0430043211241924	0.811186440677966	1	1	TRUE	0.188813559322034	1	0.709431814823933	7.78735456681464	0.85
0.85	an olympian	a mentor	15	random	1	203	1	strangle	personal	d	No	7.93808872689695	N/A	-1	0.41071875	0.0446788159109233	0.8214375	-1	1	FALSE	-0.1785625	1	0.191687153662329	7.74640157323462	0.85
0.85	an astronaut	a police officer	15	random	1	107	1	unidentified	impersonal	d	No	7.35691824235602	N/A	-1	0.44175	0.0424221463276348	0.8835	-1	1	FALSE	-0.1165	1	-0.53509397471867	7.89201221707469	0.85
0.85	an astronaut	a judge	15	random	1	139	1	unidentified	personal	k	Yes	7.85902697975154	N/A	-1	0.55539406779661	0.0444797932196546	0.88921186440678	1	1	TRUE	0.11078813559322	1	0.0155516439568697	7.84347533579467	0.85
0.85	an assassin	a thief	15	random	1	75	1	strangle	impersonal	d	No	7.33823815006559	N/A	-1	0.444932773109244	0.0426982625168199	0.889865546218487	-1	1	FALSE	-0.110134453781513	1	-0.602310948289124	7.94054909835471	0.85
0.95	an adult	a police officer	15	random	1	162	1	strangle	personal	d	No	7.85049318087114	N/A	-1	0.466609195402299	0.021280498265421	0.933218390804598	-1	1	FALSE	-0.066781609195402	1	0.0419037284964887	7.80858945237465	0.95
0.95	a homeless adult	a judge	15	random	1	130	1	strangle	personal	k	Yes	7.90248743716286	N/A	-1	0.493016393442623	0.043771653076872	0.986032786885246	-1	0	FALSE	-0.013967213114754	0	0.0453611035081806	7.85712633365467	0.95
0.95	an astronaut	an adult	15	random	1	39	1	strangle	personal	k	Yes	7.87929148508227	N/A	-1	0.484125968992248	0.0222927477240514	0.968251937984496	-1	0	FALSE	-0.031748062015504	0	-0.115861604712468	7.99515308979474	0.95
0.95	a police officer	a mentor	15	random	1	86	1	strangle	personal	k	Yes	7.86480400332846	N/A	-1	0.510028	0.043357387825826	0.979944	1	1	TRUE	0.020056	1	-0.059060542086246	7.9238645454147	0.95
0.95	an astronaut	a billionaire	15	random	1	56	1	unidentified	impersonal	k	Yes	7.5207764150628	N/A	-1	0.536351351351351	0.0465587847276145	0.927297297297297	1	1	TRUE	0.072702702702703	1	-0.44859145655193	7.96936787161473	0.95
0.95	a judge	a nun	15	random	1	25	1	strangle	impersonal	d	No	8.0149968943483	N/A	-1	0.501205128205128	0.0427890105236459	0.997589743589744	1	0	TRUE	0.00241025641025605	0	-0.00139108100644687	8.01638797535475	0.95
0.95	a nun	an olympian	15	random	1	53	1	unidentified	personal	k	Yes	7.51261754467451	N/A	-1	0.485638392857143	0.0460995691033565	0.971276785714286	-1	0	FALSE	-0.028723214285714	0	-0.461300659560219	7.97391820423473	0.95
0.95	an orphan	a soldier	15	random	1	48	1	unidentified	impersonal	k	Yes	8.35561499576018	N/A	-1	0.453074561403509	0.0449978746498579	0.906149122807018	-1	0	FALSE	-0.093850877192982	0	0.37411290382545	7.98150209193473	0.95
0.95	a gang member	a thief	15	random	1	146	1	unidentified	impersonal	d	No	8.16536363247398	N/A	-1	0.532396551724138	0.0432550026250051	0.935206896551724	1	0	TRUE	0.064793103448276	0	0.332505739459319	7.83285789301466	0.95
0.95	an adult	an elderly person	15	random	1	171	1	unidentified	personal	k	Yes	7.86480400332846	N/A	-1	0.450643024618992	0.0168959233147008	0.901286049237984	-1	0	FALSE	-0.098713950762016	0	0.0698655488138143	7.79493845451465	0.95
0.95	an olympian	a homeless adult	15	random	1	82	1	unidentified	personal	d	No	7.63094658089046	N/A	-1	0.513260683760684	0.0460445999488015	0.973478632478632	1	0	TRUE	0.026521367521368	0	-0.298985074684249	7.92993165557471	0.95
0.95	an elderly person	a police officer	15	random	1	3	1	unidentified	personal	d	No	9.21999362900432	N/A	-1	0.512476241900648	0.0230147142342473	0.975047516198704	1	0	TRUE	0.024952483801296	0	1.17023654776956	8.04975708123476	0.95
0.95	an olympian	a judge	15	random	1	186	1	strangle	impersonal	k	Yes	8.44397712908498	N/A	-1	0.507540909090909	0.0464021524356334	0.984918181818182	1	1	TRUE	0.015081818181818	1	0.671790337670343	7.77218679141463	0.95
0.95	an astronaut	an olympian	15	random	1	109	1	strangle	personal	k	Yes	7.70120018085745	N/A	-1	0.549508928571429	0.0459161466591998	0.900982142857143	1	1	TRUE	0.099017857142857	1	-0.187778481137243	7.88897866199469	0.95
0.95	a mentor	an elderly person	15	random	1	35	1	strangle	personal	d	No	9.07543660951138	N/A	-1	0.477615973741794	0.0231469075104508	0.955231947483589	-1	1	FALSE	-0.044768052516411	1	1.07421640955664	8.00122019995474	0.95
0.95	an astronaut	an olympian	15	random	1	188	1	unidentified	impersonal	k	Yes	7.72621265050753	N/A	-1	0.549508928571429	0.0459161466591998	0.900982142857143	1	1	TRUE	0.099017857142857	1	-0.0429405858271043	7.76915323633463	0.95
0.95	a mentor	a college student	15	random	1	7	1	unidentified	impersonal	d	No	8.65172408437384	N/A	-1	0.4925	0.0455898797189131	0.985	-1	1	FALSE	-0.015	1	0.608034113299081	8.04368997107476	0.95
0.95	a congressman	a celebrity	15	random	1	27	1	unidentified	personal	d	No	7.68017564043659	N/A	-1	0.459200980392157	0.0470554578600907	0.918401960784314	-1	1	FALSE	-0.081598039215686	1	-0.333178779838157	8.01335442027475	0.95
0.95	a homeless adult	a billionaire	15	random	1	163	1	unidentified	impersonal	k	Yes	7.47816969415979	N/A	-1	0.486447826086957	0.0480164740704712	0.972895652173913	-1	0	FALSE	-0.027104347826087	0	-0.328902980674866	7.80707267483465	0.95
0.05	a rapist	a college student	68	random	1	179	1	unidentified	impersonal	k	No	7.64156444126097	N/A	-1	0.0190889830508475	0.0118794054974102	0.0381779661016949	-1	1	FALSE	-0.961822033898305	1	-0.298313176262532	7.9398776175235	0.05
0.05	a rapist	an adult	68	random	1	111	1	unidentified	impersonal	k	No	7.46164039220858	N/A	-1	0.0275799614643545	0.00706497459018712	0.0551599229287091	-1	1	FALSE	-0.944840077071291	1	-0.670477097986713	8.13211749019529	0.05
0.05	a rapist	a nun	68	random	1	122	1	unidentified	impersonal	k	No	7.42714413340862	N/A	-1	0.0343032786885246	0.0147586901256789	0.0686065573770491	-1	1	FALSE	-0.931393442622951	1	-0.673563083094336	8.10070721650295	0.05
0.05	a rapist	an adult	68	random	1	185	1	strangle	impersonal	k	No	7.83991936001258	N/A	-1	0.0275799614643545	0.00706497459018712	0.0551599229287091	-1	1	FALSE	-0.944840077071291	1	-0.0832156830690689	7.92313504308165	0.05
0.05	a police officer	a terrorist	68	random	1	140	1	unidentified	personal	d	Yes	7.94449216393216	N/A	-1	0.967528455284553	0.0154076421390486	0.0649430894308942	1	1	TRUE	0.935056910569106	1	-0.105077903109997	8.04957006704216	0.05
0.05	a rapist	a judge	68	random	1	3	1	strangle	personal	k	No	8.34948434699013	N/A	-1	0.0394710743801653	0.0163768849254907	0.0789421487603306	-1	1	FALSE	-0.921057851239669	1	-0.0975672895007662	8.44705163649089	0.05
0.05	a rapist	an astronaut	68	random	1	89	1	strangle	personal	k	No	7.3375877435386	N/A	-1	0.0205284552845528	0.0114251504895455	0.0410569105691057	-1	1	FALSE	-0.958943089430894	1	-0.857716143755037	8.19530388729363	0.05
0.05	a college student	a pedophile	68	random	1	101	1	strangle	personal	d	Yes	8.09742629859721	N/A	-1	0.991581896551724	0.00729920805418245	0.0168362068965517	1	1	TRUE	0.983163793103448	1	-0.0633516611556733	8.16077795975289	0.05
0.05	a mentor	a rapist	68	random	1	130	1	unidentified	personal	d	Yes	8.07620452723903	N/A	-1	0.98072131147541	0.0121183521958367	0.0385573770491803	1	1	TRUE	0.96144262295082	1	-0.00173508293090485	8.07793961016993	0.05
0.05	a college student	a terrorist	68	random	1	45	1	strangle	impersonal	d	Yes	8.16308637558322	N/A	-1	0.980799107142857	0.0117922874462679	0.0384017857142858	1	1	TRUE	0.961598214285714	1	-0.160066991918992	8.32315336750221	0.05
0.05	a nun	a pedophile	68	random	1	71	1	unidentified	personal	d	Yes	7.98684490116138	N/A	-1	0.982033333333333	0.0109620380125458	0.0359333333333334	1	1	TRUE	0.964066666666667	1	-0.26052195052299	8.24736685168437	0.05
0.05	a soldier	an assassin	68	random	1	127	1	strangle	personal	d	Yes	7.98309894071089	N/A	-1	0.96231779661017	0.0161284562618494	0.075364406779661	1	1	TRUE	0.924635593220339	1	-0.103371013334986	8.08646995404588	0.05
0.05	a pedophile	a homeless adult	68	random	1	28	1	unidentified	impersonal	k	No	7.93379687481541	N/A	-1	0.021524	0.012125363848085	0.043048	-1	1	FALSE	-0.956952	1	-0.439285354942087	8.3730822297575	0.05
0.05	a pedophile	a police officer	68	random	1	142	1	unidentified	impersonal	k	No	7.83320394864106	N/A	-1	0.0179007936507936	0.0117212063398475	0.0358015873015873	-1	1	FALSE	-0.964198412698413	1	-0.210704176974448	8.0439081256155	0.05
0.05	an olympian	a terrorist	68	random	1	2	1	strangle	personal	d	Yes	8.54169066301663	N/A	-1	0.965830275229358	0.0158435136468067	0.0683394495412843	1	1	TRUE	0.931660550458716	1	0.0916666965495541	8.45002396646707	0.05
0.05	a soldier	an assassin	68	random	1	49	1	strangle	personal	d	Yes	7.96935774201635	N/A	-1	0.96231779661017	0.0161284562618494	0.075364406779661	1	1	TRUE	0.924635593220339	1	-0.342090992097118	8.31144873411346	0.05
0.05	a nun	a terrorist	68	random	1	54	1	unidentified	impersonal	d	Yes	7.99564360428727	N/A	-1	0.962629310344828	0.0159160524503015	0.0747413793103449	1	1	TRUE	0.925258620689655	1	-0.301197482140195	8.29684108642747	0.05
0.05	a pedophile	an olympian	68	random	1	108	1	unidentified	personal	k	No	7.51806418123308	N/A	-1	0.0166814159292035	0.0113395845949436	0.033362831858407	-1	1	FALSE	-0.966637168141593	1	-0.622640864945377	8.14070504617846	0.05
0.05	a pedophile	a judge	68	random	1	10	1	strangle	impersonal	k	No	8.45807992692373	N/A	-1	0.0214237288135593	0.0121537738211755	0.0428474576271186	-1	1	FALSE	-0.957152542372881	1	0.0318053460388441	8.42627458088489	0.05
0.05	a pedophile	an orphan	68	random	1	75	1	unidentified	impersonal	k	No	8.27664912542186	N/A	-1	0.0054059829059829	0.00627919281139982	0.0108119658119659	-1	1	FALSE	-0.989188034188034	1	0.0408803305266812	8.23576879489518	0.05
0.05	a pedophile	an astronaut	68	random	1	103	1	unidentified	impersonal	k	No	7.57660976697304	N/A	-1	0.00934166666666667	0.00800512761792657	0.0186833333333334	-1	1	FALSE	-0.981316666666667	1	-0.578428029464394	8.15503779643743	0.05
0.05	a homeless adult	a rapist	68	random	1	149	1	strangle	personal	d	Yes	7.82524529143177	N/A	-1	0.962933070866142	0.0162153777731943	0.0741338582677165	1	1	TRUE	0.925866141732284	1	-0.198877383163931	8.02412267459571	0.05
0.05	a homeless adult	a rapist	68	random	1	178	1	strangle	personal	d	Yes	7.8991534833431	N/A	-1	0.962933070866142	0.0162153777731943	0.0741338582677165	1	1	TRUE	0.925866141732284	1	-0.043518000876781	7.94267148421988	0.05
0.05	an orphan	an assassin	68	random	1	157	1	strangle	personal	d	Yes	7.62705741701893	N/A	-1	0.96014406779661	0.0165853349477485	0.0797118644067796	1	1	TRUE	0.92028813559322	1	-0.374512897475315	8.00157031449425	0.05
0.05	an adult	a pedophile	68	random	1	70	1	strangle	impersonal	d	Yes	7.97418866928601	N/A	-1	0.985152131782946	0.00550562891361406	0.0296957364341086	1	1	TRUE	0.970304263565891	1	-0.276080247731061	8.25026891701707	0.05
0.05	an elderly person	a terrorist	68	random	1	163	1	unidentified	impersonal	d	Yes	7.81722278550817	N/A	-1	0.977614537444934	0.0071416075896184	0.0447709251101323	1	1	TRUE	0.955229074889868	1	-0.167474865061582	7.98469765056975	0.05
0.15	a mentor	a thief	68	random	1	123	1	unidentified	personal	d	Yes	8.09955428237636	N/A	-1	0.917025423728814	0.0246773175469733	0.165949152542373	1	1	TRUE	0.834050847457627	1	0.00169652227535977	8.097857760101	0.15
0.15	a gang member	a soldier	68	random	1	37	1	unidentified	personal	k	No	8.17751582384608	N/A	-1	0.0759	0.0242128104964956	0.1518	-1	1	FALSE	-0.8482	1	-0.169096282946789	8.34661210679286	0.15
0.15	an assassin	a college student	68	random	1	125	1	unidentified	impersonal	k	No	8.19643681123503	N/A	-1	0.056301724137931	0.0205350060973244	0.112603448275862	-1	1	FALSE	-0.887396551724138	1	0.104274957367174	8.09216185386785	0.15
0.15	a rapist	a billionaire	68	random	1	72	1	unidentified	personal	k	No	7.81480342948936	N/A	-1	0.0712368421052632	0.0222274189864663	0.142473684210526	-1	1	FALSE	-0.857526315789474	1	-0.429662377675484	8.24446580716484	0.15
0.15	a gang member	a college student	68	random	1	136	1	strangle	personal	k	No	8.38389034410182	N/A	-1	0.0988407079646018	0.0270748727635649	0.197681415929204	-1	1	FALSE	-0.802318584070796	1	0.322984435428943	8.06090590867287	0.15
0.15	a gang member	a college student	68	random	1	5	1	unidentified	personal	k	No	8.40626163070896	N/A	-1	0.0988407079646018	0.0270748727635649	0.197681415929204	-1	1	FALSE	-0.802318584070796	1	-0.0348484820489467	8.4411101127579	0.15
0.15	an adult	an assassin	68	random	1	187	1	strangle	personal	d	Yes	7.92479591395644	N/A	-1	0.924879110251451	0.0115555885996018	0.150241779497099	1	1	TRUE	0.849758220502901	1	0.00723387988715984	7.91756203406928	0.15
0.15	a police officer	an assassin	68	random	1	96	1	unidentified	impersonal	d	Yes	8.06085575293432	N/A	-1	0.92607874015748	0.02300977574033	0.147842519685039	1	1	TRUE	0.852157480314961	1	-0.114290298003869	8.17514605093819	0.15
0.15	a pedophile	a billionaire	68	random	1	162	1	unidentified	personal	k	No	7.23705902612474	N/A	-1	0.0542567567567568	0.0190551028771623	0.108513513513514	-1	1	FALSE	-0.891486486486486	1	-0.750448262316167	7.9875072884409	0.15
0.15	a thief	an adult	68	random	1	100	1	unidentified	impersonal	k	No	8.21608809863232	N/A	-1	0.0979309338521401	0.0128527917226562	0.19586186770428	-1	1	FALSE	-0.80413813229572	1	0.05243854225583	8.16364955637649	0.15
0.15	a police officer	an assassin	68	random	1	143	1	strangle	impersonal	d	Yes	7.99361999482774	N/A	-1	0.92607874015748	0.02300977574033	0.147842519685039	1	1	TRUE	0.852157480314961	1	-0.047458653694882	8.04107864852263	0.15
0.15	a pedophile	a congressman	68	random	1	102	1	strangle	personal	k	No	7.59488438721652	N/A	-1	0.0896036036036036	0.0257597166712584	0.179207207207207	-1	1	FALSE	-0.820792792792793	1	-0.563022986008451	8.15790737322497	0.15
0.15	an assassin	an elderly person	68	random	1	110	1	unidentified	impersonal	k	No	8.08764028777898	N/A	-1	0.060075327510917	0.0111118941206632	0.120150655021834	-1	1	FALSE	-0.879849344978166	1	-0.0473387140568278	8.13497900183581	0.15
0.15	a judge	an assassin	68	random	1	59	1	unidentified	personal	d	Yes	7.79688034278352	N/A	-1	0.901983193277311	0.026476631337714	0.196033613445378	1	1	TRUE	0.803966386554622	1	-0.485378769384779	8.2822591121683	0.15
0.15	an astronaut	a thief	68	random	1	14	1	strangle	personal	d	Yes	8.49535649680706	N/A	-1	0.906733050847458	0.0259515787639947	0.186533898305085	1	1	TRUE	0.813466101694915	1	0.0809315659823593	8.4144249308247	0.15
0.15	an assassin	an adult	68	random	1	11	1	unidentified	impersonal	k	No	8.13064796816058	N/A	-1	0.0755290135396518	0.0116359346205318	0.151058027079304	-1	1	FALSE	-0.848941972920696	1	-0.292662636690192	8.42331060485078	0.15
0.15	an astronaut	an assassin	68	random	1	46	1	strangle	personal	d	Yes	8.58932778917544	N/A	-1	0.937157024793388	0.0206627023140056	0.125685950413223	1	1	TRUE	0.874314049586777	1	0.269102124405048	8.32022566477039	0.15
0.15	a pedophile	a celebrity	68	random	1	47	1	unidentified	impersonal	k	No	7.55013534248843	N/A	-1	0.0734955357142857	0.0234032969450558	0.146991071428571	-1	1	FALSE	-0.853008928571429	1	-0.767163649381373	8.3172989918698	0.15
0.15	a thief	a soldier	68	random	1	67	1	unidentified	impersonal	k	No	8.24064886337491	N/A	-1	0.0526304347826087	0.0208836211931925	0.105260869565217	-1	1	FALSE	-0.894739130434783	1	-0.0183323781119533	8.25898124148687	0.15
0.15	a pedophile	a billionaire	68	random	1	7	1	strangle	impersonal	k	No	7.98514393119862	N/A	-1	0.0542567567567568	0.0190551028771623	0.108513513513514	-1	1	FALSE	-0.891486486486486	1	-0.450028837000963	8.43517276819958	0.15
0.15	a homeless adult	an assassin	68	random	1	159	1	unidentified	personal	d	Yes	7.83755436088108	N/A	-1	0.907048	0.0241182791133071	0.185904	1	1	TRUE	0.814096	1	-0.158387774460169	7.99594213534125	0.15
0.15	a rapist	a celebrity	68	random	1	23	1	strangle	impersonal	k	No	8.23084356419823	N/A	-1	0.0927173913043478	0.0251320850171983	0.185434782608696	-1	1	FALSE	-0.814565217391304	1	-0.156980545509002	8.38782410970724	0.15
0.25	a gang member	an astronaut	68	random	1	160	1	unidentified	personal	k	No	7.90174751852014	N/A	-1	0.108415254237288	0.0276527102774115	0.216830508474576	-1	1	FALSE	-0.783169491525424	1	-0.0913820119585687	7.99312953047871	0.25
0.25	a celebrity	a terrorist	68	random	1	1	1	unidentified	impersonal	d	Yes	8.31947369244219	N/A	-1	0.899215596330275	0.0264266960166984	0.20156880733945	1	1	TRUE	0.79843119266055	1	-0.133523649898008	8.45299734234019	0.25
0.25	an addict	a soldier	68	random	1	153	1	unidentified	impersonal	k	No	8.15994665557855	N/A	-1	0.143455752212389	0.0317269819193233	0.286911504424779	-1	1	FALSE	-0.713088495575221	1	0.147108095311332	8.01283856026722	0.25
0.25	a college student	a convict	68	random	1	112	1	strangle	impersonal	d	Yes	8.64576229221094	N/A	-1	0.85069918699187	0.0309375868081588	0.29860162601626	1	1	TRUE	0.70139837398374	1	0.516505307107931	8.12925698510301	0.25
0.25	a pedophile	an addict	68	random	1	73	1	strangle	impersonal	k	No	7.88269220628903	N/A	-1	0.122918103448276	0.0287109344910043	0.245836206896552	-1	1	FALSE	-0.754163793103448	1	-0.358873576810387	8.24156578309941	0.25
0.25	a rapist	a congressman	68	random	1	43	1	strangle	impersonal	k	No	8.31458729131958	N/A	-1	0.110336283185841	0.026852513798758	0.220672566371681	-1	1	FALSE	-0.779327433628319	1	-0.01442457258959	8.32901186390917	0.25
0.25	a gang member	a police officer	68	random	1	154	1	strangle	personal	k	No	7.56423847517049	N/A	-1	0.120673387096774	0.0285653132507198	0.241346774193548	-1	1	FALSE	-0.758653225806452	1	-0.44578153684864	8.01002001201913	0.25
0.25	a gang member	a mentor	68	random	1	137	1	strangle	impersonal	k	No	8.01565761455734	N/A	-1	0.104876068376068	0.0274149454280561	0.209752136752137	-1	1	FALSE	-0.790247863247863	1	-0.0424128379839797	8.05807045254132	0.25
0.25	an olympian	a thief	68	random	1	117	1	strangle	personal	d	Yes	8.86205867739547	N/A	-1	0.882905405405405	0.0296306858396043	0.234189189189189	1	1	TRUE	0.765810810810811	1	0.747089131917743	8.11496954547773	0.25
0.25	an assassin	a billionaire	68	random	1	18	1	strangle	impersonal	k	No	8.33950090300594	N/A	-1	0.131491071428571	0.0294661286793242	0.262982142857143	-1	1	FALSE	-0.737017857142857	1	-0.0630910416122372	8.40259194461818	0.25
0.25	a thief	a homeless adult	68	random	1	84	1	unidentified	personal	k	No	8.13446757027756	N/A	-1	0.127032520325203	0.0283436008376258	0.254065040650407	-1	1	FALSE	-0.745934959349593	1	-0.0752651955034622	8.20973276578103	0.25
0.25	a gang member	an adult	68	random	1	12	1	strangle	impersonal	k	No	7.93200315236138	N/A	-1	0.121046692607004	0.0146080779787631	0.242093385214008	-1	1	FALSE	-0.757906614785992	1	-0.488344519045792	8.42034767140718	0.25
0.25	a convict	a soldier	68	random	1	26	1	unidentified	impersonal	k	No	8.68135077758252	N/A	-1	0.108435483870968	0.0268303102316916	0.216870967741935	-1	1	FALSE	-0.783129032258065	1	0.302374907519205	8.37897587006332	0.25
0.25	a homeless adult	a gang member	68	random	1	30	1	unidentified	personal	d	Yes	8.43750042250699	N/A	-1	0.855545081967213	0.0314408226131203	0.288909836065574	1	1	TRUE	0.711090163934426	1	0.0703076875610869	8.3671927349459	0.25
0.25	a thief	a nun	68	random	1	105	1	strangle	impersonal	k	No	8.15017926968233	N/A	-1	0.123555084745763	0.0285258064291604	0.247110169491525	-1	1	FALSE	-0.752889830508475	1	0.000877599019437625	8.14930167066289	0.25
0.25	an elderly person	a gang member	68	random	1	83	1	strangle	impersonal	d	Yes	7.99159228206809	N/A	-1	0.897174725274725	0.0136510444989186	0.205650549450549	1	1	TRUE	0.794349450549451	1	-0.221029306446148	8.21262158851424	0.25
0.25	a homeless adult	a thief	68	random	1	52	1	unidentified	personal	d	Yes	8.20876404581967	N/A	-1	0.873373983739837	0.0287756672303014	0.253252032520325	1	1	TRUE	0.746747967479675	1	-0.0939170163414857	8.30268106216115	0.25
0.35	a convict	a mentor	68	random	1	152	1	strangle	impersonal	k	No	8.18088094199639	N/A	-1	0.153905511811024	0.0300994450901669	0.307811023622047	-1	1	FALSE	-0.692188976377953	1	0.165222841696522	8.01565810029987	0.35
0.35	an addict	a terrorist	68	random	1	176	1	strangle	personal	d	Yes	7.75491027202143	N/A	-1	0.833823008849558	0.0326905360293986	0.332353982300885	1	1	TRUE	0.667646017699115	1	-0.19335189523616	7.94826216725759	0.35
0.35	a police officer	a convict	68	random	1	22	1	unidentified	impersonal	d	Yes	8.34593026197902	N/A	-1	0.836296992481203	0.0303486496520387	0.327406015037594	1	1	TRUE	0.672593984962406	1	-0.0448453368523651	8.39077559883138	0.35
0.35	an addict	an elderly person	68	random	1	80	1	unidentified	impersonal	k	No	7.74500280351584	N/A	-1	0.19832229580574	0.0185569123975919	0.396644591611479	-1	1	FALSE	-0.603355408388521	1	-0.476291353704519	8.22129415722036	0.35
0.35	a thief	a billionaire	68	random	1	85	1	strangle	impersonal	k	No	7.8991534833431	N/A	-1	0.161711009174312	0.0342568001950382	0.323422018348624	-1	1	FALSE	-0.676577981651376	1	-0.307691475859746	8.20684495920284	0.35
0.35	a convict	a police officer	68	random	1	138	1	unidentified	impersonal	k	No	8.50633444808136	N/A	-1	0.164605263157895	0.0313083941685201	0.329210526315789	-1	1	FALSE	-0.670789473684211	1	0.451098454288477	8.05523599379288	0.35
0.35	a gang member	a judge	68	random	1	33	1	strangle	impersonal	k	No	8.75841238945768	N/A	-1	0.152991379310345	0.0326584708248918	0.30598275862069	-1	1	FALSE	-0.69401724137931	1	0.400046130305418	8.35836625915226	0.35
0.35	an addict	a rapist	68	random	1	139	1	unidentified	personal	d	Yes	8.33830573135656	N/A	-1	0.849046218487395	0.0305061651176638	0.30190756302521	1	1	TRUE	0.69809243697479	1	0.285903199279833	8.05240253207673	0.35
0.35	a convict	an astronaut	68	random	1	17	1	strangle	personal	k	No	8.91072066195136	N/A	-1	0.161299212598425	0.0320679974603549	0.32259842519685	-1	1	FALSE	-0.67740157480315	1	0.505172031735722	8.40554863021564	0.35
0.45	an adult	an addict	68	random	1	114	1	strangle	impersonal	k	No	8.35655484545343	N/A	-1	0.7682021484375	0.0188494078646435	0.463595703125	1	0	TRUE	0.536404296875	0	0.233015852306316	8.12353899314711	0.45
0.45	a rapist	a convict	68	random	1	48	1	strangle	impersonal	k	No	8.28803156777646	N/A	-1	0.239069230769231	0.0322001706983805	0.478138461538462	-1	1	FALSE	-0.521861538461538	1	-0.0263417806617365	8.3143733484382	0.45
0.45	a pedophile	a convict	68	random	1	106	1	strangle	personal	k	No	7.4599147662411	N/A	-1	0.21284765625	0.0315709109017175	0.4256953125	-1	1	FALSE	-0.5743046875	1	-0.686520354724794	8.1464351209659	0.45
0.45	an addict	an astronaut	68	random	1	51	1	strangle	personal	k	No	8.17470288246946	N/A	-1	0.230728448275862	0.0375081446471095	0.461456896551724	-1	1	FALSE	-0.538543103448276	1	-0.130899708867279	8.30560259133674	0.45
0.45	a college student	an addict	68	random	1	24	1	unidentified	impersonal	d	Yes	9.31406955773866	N/A	-1	0.794054054054054	0.0376921308699716	0.411891891891892	1	1	TRUE	0.588108108108108	1	0.929195898957376	8.38487365878128	0.45
0.45	a celebrity	a gang member	68	random	1	177	1	strangle	impersonal	d	Yes	8.49228555571005	N/A	-1	0.774863636363636	0.0397865471355498	0.450272727272727	1	1	TRUE	0.549727272727273	1	0.546819221694123	7.94546633401593	0.45
0.45	a soldier	a congressman	68	random	1	56	1	strangle	personal	k	No	8.62837672037685	N/A	-1	0.769023364485981	0.040655992993165	0.461953271028037	1	0	TRUE	0.538046728971963	0	0.337371501935667	8.29100521844119	0.45
0.45	a celebrity	a thief	68	random	1	158	1	unidentified	impersonal	d	Yes	8.35913488675796	N/A	-1	0.797636363636364	0.0353641417731265	0.404727272727273	1	1	TRUE	0.595272727272727	1	0.360379156860948	7.99875572989701	0.45
0.45	a celebrity	a thief	68	random	1	168	1	unidentified	impersonal	d	Yes	8.9947928972836	N/A	-1	0.797636363636364	0.0353641417731265	0.404727272727273	1	1	TRUE	0.595272727272727	1	1.02412861849897	7.97066427878463	0.45
0.45	a convict	a nun	68	random	1	174	1	unidentified	personal	k	No	8.41227702146668	N/A	-1	0.20094094488189	0.0345382280537045	0.40188188976378	-1	1	FALSE	-0.59811811023622	1	0.458420236004614	7.95385678546206	0.45
0.45	a convict	a billionaire	68	random	1	9	1	strangle	impersonal	k	No	8.59267165259214	N/A	-1	0.233728813559322	0.0381085792469077	0.467457627118644	-1	1	FALSE	-0.532542372881356	1	0.163432052715768	8.42923959987638	0.45
0.55	an addict	a nun	68	random	1	53	1	strangle	personal	k	No	8.35514473946184	N/A	-1	0.2795	0.0404507526511449	0.559	-1	1	FALSE	-0.441	1	0.0553841788166167	8.29976056064522	0.55
0.55	a terrorist	a convict	68	random	1	4	1	strangle	impersonal	k	No	8.43185314424922	N/A	-1	0.261677419354839	0.0353728422739929	0.523354838709677	-1	1	FALSE	-0.476645161290323	1	-0.0122272077945365	8.44408035204376	0.55
0.55	a congressman	a gang member	68	random	1	81	1	strangle	impersonal	d	Yes	8.45723085024355	N/A	-1	0.738703703703704	0.0396502168720051	0.522592592592592	1	1	TRUE	0.477407407407408	1	0.238828566367399	8.21840228387616	0.55
0.55	an orphan	a congressman	68	random	1	42	1	strangle	personal	d	Yes	8.12622252945853	N/A	-1	0.74442523364486	0.0414497920026441	0.51114953271028	1	1	TRUE	0.48885046728972	1	-0.205720128850915	8.33194265830944	0.55
0.55	a soldier	a judge	68	random	1	126	1	strangle	personal	k	No	8.76170676846664	N/A	-1	0.707369565217391	0.0421128632071107	0.585260869565218	1	0	TRUE	0.414739130434782	0	0.672391365134997	8.08931540333164	0.55
0.55	a judge	an addict	68	random	1	65	1	unidentified	impersonal	k	No	8.15421269491423	N/A	-1	0.71280701754386	0.0403881398303768	0.574385964912281	1	0	TRUE	0.425614035087719	0	-0.110581873540433	8.26479456845466	0.55
0.55	an assassin	an addict	68	random	1	39	1	strangle	personal	k	No	7.83991936001258	N/A	-1	0.257017094017094	0.0409319566852617	0.514034188034188	-1	1	FALSE	-0.485965811965812	1	-0.500821870638322	8.3407412306509	0.55
0.55	a thief	a pedophile	68	random	1	57	1	strangle	personal	d	Yes	8.14525956651686	N/A	-1	0.716415966386555	0.0368396177555017	0.567168067226891	1	1	TRUE	0.432831932773109	1	-0.142829257433462	8.28808882395033	0.55
0.55	a judge	a soldier	68	random	1	189	1	strangle	impersonal	k	No	7.97590836016554	N/A	-1	0.295882608695652	0.0400262064299244	0.591765217391304	-1	1	FALSE	-0.408234782608696	1	0.0639154151414418	7.9119929450241	0.55
0.55	a celebrity	an orphan	68	random	1	151	1	strangle	personal	k	No	7.55328660560042	N/A	-1	0.291137614678899	0.0417808922594864	0.582275229357798	-1	1	FALSE	-0.417724770642202	1	-0.465192026865654	8.01847863246607	0.55
0.55	an olympian	an addict	68	random	1	82	1	strangle	personal	k	No	7.68753876620163	N/A	-1	0.730023148148148	0.0421277415067279	0.539953703703704	1	0	TRUE	0.460046296296296	0	-0.527972661558427	8.21551142776006	0.55
0.55	a soldier	a homeless adult	68	random	1	120	1	unidentified	personal	k	No	7.7341213033283	N/A	-1	0.719743801652893	0.039176124989322	0.560512396694215	1	0	TRUE	0.439487603305785	0	-0.372287834312734	8.10640913764104	0.55
0.55	a celebrity	a convict	68	random	1	129	1	unidentified	impersonal	d	Yes	8.74337213127397	N/A	-1	0.720151260504202	0.0397263471734401	0.559697478991597	1	1	TRUE	0.440302521008403	1	0.662590073456938	8.08078205781703	0.55
0.55	a soldier	a homeless adult	68	random	1	63	1	strangle	impersonal	k	No	8.42156296040099	N/A	-1	0.719743801652893	0.039176124989322	0.560512396694215	1	0	TRUE	0.439487603305785	0	0.150950973097286	8.2706119873037	0.55
0.55	a nun	a soldier	68	random	1	166	1	strangle	impersonal	k	No	8.24380842366528	N/A	-1	0.292512931034483	0.041293915794285	0.585025862068966	-1	1	FALSE	-0.414974137931034	1	0.267533758290791	7.97627466537449	0.55
0.65	an addict	a billionaire	68	random	1	109	1	strangle	impersonal	k	No	8.13329386122263	N/A	-1	0.307210280373832	0.0430713152556748	0.614420560747663	-1	1	FALSE	-0.385579439252337	1	-0.00454765915613109	8.13784152037876	0.65
0.65	a convict	a congressman	68	random	1	170	1	strangle	personal	k	No	7.67508185771633	N/A	-1	0.317135593220339	0.0407692827076158	0.634271186440678	-1	1	FALSE	-0.365728813559322	1	-0.289975980736442	7.96505783845278	0.65
0.65	a convict	a congressman	68	random	1	13	1	unidentified	impersonal	k	No	8.73793385811414	N/A	-1	0.317135593220339	0.0407692827076158	0.634271186440678	-1	1	FALSE	-0.365728813559322	1	0.320548077926782	8.41738578018735	0.65
0.65	a billionaire	a soldier	68	random	1	175	1	strangle	impersonal	k	No	7.85593219971861	N/A	-1	0.334578703703704	0.0446166404071383	0.669157407407407	-1	1	FALSE	-0.330842592592593	1	-0.0951267845722947	7.95105898429091	0.65
0.65	a congressman	a college student	68	random	1	165	1	strangle	personal	k	No	8.60538720215215	N/A	-1	0.311721698113208	0.0423548138404616	0.623443396226415	-1	1	FALSE	-0.376556603773585	1	0.626305862768036	7.97908133938412	0.65
0.65	a nun	an orphan	68	random	1	147	1	strangle	personal	k	No	8.05006542291597	N/A	-1	0.322922413793103	0.0400341573331184	0.645844827586207	-1	1	FALSE	-0.354155172413793	1	0.0202947334654979	8.02977068945047	0.65
0.65	a thief	a terrorist	68	random	1	171	1	strangle	impersonal	d	Yes	8.36030543587909	N/A	-1	0.661473913043478	0.0395131696050285	0.677052173913044	1	1	TRUE	0.322947826086956	1	0.39804933861299	7.9622560972661	0.65
0.65	a nun	an orphan	68	random	1	86	1	strangle	personal	k	No	8.0802374162167	N/A	-1	0.322922413793103	0.0400341573331184	0.645844827586207	-1	1	FALSE	-0.354155172413793	1	-0.123720752205561	8.20395816842226	0.65
0.65	a soldier	an astronaut	68	random	1	104	1	strangle	impersonal	k	No	8.26719218593215	N/A	-1	0.675303418803419	0.0425327723000811	0.649393162393162	1	0	TRUE	0.350606837606838	0	0.115022956897056	8.15216922903509	0.65
0.65	a terrorist	a thief	68	random	1	90	1	unidentified	impersonal	k	No	8.21012440516427	N/A	-1	0.337430434782609	0.0391988296964695	0.674860869565217	-1	1	FALSE	-0.325139130434783	1	0.017703249032671	8.1924211561316	0.65
0.65	an orphan	an olympian	68	random	1	35	1	strangle	personal	d	Yes	8.38799525294456	N/A	-1	0.669160550458716	0.0431744857862549	0.661678899082569	1	1	TRUE	0.338321100917431	1	0.0355081376208091	8.35248711532375	0.65
0.65	a pedophile	an assassin	68	random	1	69	1	strangle	personal	k	No	7.75705114203201	N/A	-1	0.342706611570248	0.0380370737035911	0.685413223140496	-1	1	FALSE	-0.314586776859504	1	-0.496120861490137	8.25317200352215	0.65
0.65	an orphan	a judge	68	random	1	134	1	unidentified	personal	d	Yes	7.97625194374562	N/A	-1	0.66924347826087	0.0423129119610609	0.661513043478261	1	1	TRUE	0.338486956521739	1	-0.0903278707436677	8.06657981448929	0.65
0.65	a mentor	a congressman	68	random	1	27	1	strangle	personal	d	Yes	8.86432272251144	N/A	-1	0.681118181818182	0.0420290581739252	0.637763636363636	1	1	TRUE	0.362236363636364	1	0.488294190970132	8.37602853154131	0.65
0.65	a celebrity	an elderly person	68	random	1	87	1	strangle	impersonal	k	No	8.23668532271246	N/A	-1	0.345425389755011	0.0218959886841616	0.690850779510022	-1	1	FALSE	-0.309149220489978	1	0.0356129296304868	8.20107239308197	0.65
0.65	an elderly person	a congressman	68	random	1	121	1	unidentified	impersonal	k	No	8.23880116587155	N/A	-1	0.695194196428571	0.0222165789425708	0.609611607142857	1	0	TRUE	0.390388392857143	0	0.135243490306191	8.10355767556536	0.65
0.65	a thief	an addict	68	random	1	156	1	unidentified	personal	k	No	8.15306194680105	N/A	-1	0.304982456140351	0.0405349819183439	0.609964912280702	-1	1	FALSE	-0.390035087719298	1	0.148676057319724	8.00438588948133	0.65
0.65	a celebrity	a college student	68	random	1	88	1	unidentified	personal	k	No	7.93056585423396	N/A	-1	0.344144859813084	0.0448867378461305	0.688289719626168	-1	1	FALSE	-0.311710280373832	1	-0.267621778590815	8.19818763282478	0.65
0.65	a gang member	a terrorist	68	random	1	141	1	unidentified	personal	d	Yes	7.93343838762749	N/A	-1	0.689882608695652	0.0387379969712809	0.620234782608696	1	1	TRUE	0.379765217391304	1	-0.11330021071108	8.04673859833857	0.65
0.75	a homeless adult	an elderly person	68	random	1	124	1	strangle	personal	k	No	8.1721644521119	N/A	-1	0.373905844155844	0.0223182937625625	0.747811688311688	-1	1	FALSE	-0.252188311688312	1	0.0771551461050777	8.09500930600683	0.75
0.75	a homeless adult	an elderly person	68	random	1	150	1	strangle	impersonal	k	No	8.2550489027523	N/A	-1	0.373905844155844	0.0223182937625625	0.747811688311688	-1	1	FALSE	-0.252188311688312	1	0.233748745637353	8.02130015711494	0.75
0.75	a mentor	a celebrity	68	random	1	32	1	strangle	personal	d	Yes	8.29229810706322	N/A	-1	0.646373873873874	0.0451135243617255	0.707252252252252	1	1	TRUE	0.292747747747748	1	-0.0690092756494334	8.36130738271265	0.75
0.75	a homeless adult	a congressman	68	random	1	184	1	unidentified	personal	k	No	7.7445698093545	N/A	-1	0.602426086956522	0.0452501873024464	0.795147826086956	1	0	TRUE	0.204852173913044	0	-0.181353209083211	7.92592301843771	0.75
0.75	an elderly person	a nun	68	random	1	74	1	unidentified	impersonal	k	No	8.19671240721307	N/A	-1	0.620566739606127	0.021829831438993	0.758866520787746	1	0	TRUE	0.241133479212254	0	-0.0419543719160629	8.23866677912913	0.75
0.75	a nun	an elderly person	68	random	1	180	1	strangle	personal	k	No	7.87016594646984	N/A	-1	0.379204595185996	0.0227397291574462	0.758409190371991	-1	1	FALSE	-0.241590809628009	1	-0.0669187871111507	7.937084733581	0.75
0.75	a congressman	a judge	68	random	1	16	1	strangle	personal	k	No	8.91166475804954	N/A	-1	0.396606481481481	0.0454190869775859	0.793212962962963	-1	1	FALSE	-0.206787037037037	1	0.503158401844408	8.40850635620513	0.75
0.75	a police officer	a nun	68	random	1	20	1	unidentified	personal	k	No	7.98002359231065	N/A	-1	0.601176	0.0410893825867628	0.797648	1	0	TRUE	0.202352	0	-0.416658100825004	8.39668169313565	0.75
0.75	a college student	a judge	68	random	1	155	1	unidentified	personal	k	No	8.2553088117856	N/A	-1	0.607008849557522	0.0445193822617163	0.785982300884956	1	0	TRUE	0.214017699115044	0	0.248106356578848	8.00720245520675	0.75
0.75	a judge	an elderly person	68	random	1	95	1	unidentified	impersonal	k	No	8.51218064959269	N/A	-1	0.38159010989011	0.0230756394708929	0.76318021978022	-1	1	FALSE	-0.23681978021978	1	0.334157946218543	8.17802270337415	0.75
0.75	an assassin	a rapist	68	random	1	94	1	unidentified	personal	d	Yes	7.9043348420851	N/A	-1	0.630701612903226	0.0362965119344826	0.738596774193548	1	1	TRUE	0.261403225806452	1	-0.27656552595516	8.18090036804026	0.75
0.75	a soldier	an elderly person	68	random	1	107	1	unidentified	impersonal	k	No	8.81507308884446	N/A	-1	0.600103524229075	0.0234813372027686	0.79979295154185	1	0	TRUE	0.20020704845815	0	0.67150350925515	8.14356957958931	0.75
0.75	an addict	a celebrity	68	random	1	186	1	unidentified	impersonal	k	No	7.58629630715272	N/A	-1	0.35962037037037	0.0444841259584902	0.719240740740741	-1	1	FALSE	-0.280759259259259	1	-0.334051741254441	7.92034804840716	0.75
0.75	an astronaut	a celebrity	68	random	1	183	1	unidentified	personal	k	No	7.41697962138115	N/A	-1	0.613276785714286	0.0449190929962347	0.773446428571429	1	0	TRUE	0.226553571428571	0	-0.511732353439251	7.9287119748204	0.75
0.75	an orphan	a billionaire	68	random	1	132	1	unidentified	personal	d	Yes	7.90544164906029	N/A	-1	0.639393518518519	0.0465765437579989	0.721212962962963	1	1	TRUE	0.278787037037037	1	-0.166816064990984	8.07225771405127	0.75
0.75	a judge	a congressman	68	random	1	169	1	unidentified	impersonal	k	No	8.50653661122771	N/A	-1	0.605087962962963	0.0461190204605314	0.789824074074074	1	0	TRUE	0.210175925925926	0	0.538676045717724	7.96786056550999	0.75
0.75	a mentor	a celebrity	68	random	1	29	1	unidentified	personal	d	Yes	8.21554741194707	N/A	-1	0.646373873873874	0.0451135243617255	0.707252252252252	1	1	TRUE	0.292747747747748	1	-0.154589552400145	8.37013696434721	0.75
0.75	an olympian	an elderly person	68	random	1	64	1	unidentified	impersonal	d	Yes	8.43750042250699	N/A	-1	0.39197	0.0237969852632372	0.78394	-1	0	FALSE	-0.21606	0	0.169797656292928	8.26770276621406	0.75
0.75	a police officer	a celebrity	68	random	1	44	1	unidentified	personal	d	Yes	8.29754352935628	N/A	-1	0.64793220338983	0.0426683881448187	0.704135593220339	1	1	TRUE	0.295864406779661	1	-0.0285385710713477	8.32608210042763	0.75
0.75	an orphan	an astronaut	68	random	1	144	1	unidentified	impersonal	d	Yes	8.30795254527102	N/A	-1	0.63375641025641	0.0445113904670633	0.73248717948718	1	1	TRUE	0.26751282051282	1	0.269702378561302	8.03825016670972	0.75
0.75	a congressman	a billionaire	68	random	1	93	1	unidentified	personal	k	No	8.12177741916107	N/A	-1	0.39749504950495	0.0472487490444195	0.794990099009901	-1	1	FALSE	-0.205009900990099	1	-0.062001626131611	8.18377904529268	0.75
0.75	a homeless adult	a police officer	68	random	1	6	1	strangle	impersonal	k	No	8.41869794466714	N/A	-1	0.389857692307692	0.0414902855601991	0.779715384615385	-1	1	FALSE	-0.220284615384615	1	-0.019442973598542	8.43814091826568	0.75
0.75	a mentor	a soldier	68	random	1	68	1	unidentified	personal	k	No	7.85438121065236	N/A	-1	0.379340517241379	0.0431342764958809	0.758681034482759	-1	1	FALSE	-0.241318965517241	1	-0.401694900906564	8.25607611155893	0.75
0.75	an astronaut	an orphan	68	random	1	131	1	strangle	personal	k	No	7.59839932932396	N/A	-1	0.367269230769231	0.0441757937747791	0.734538461538462	-1	1	FALSE	-0.265461538461538	1	-0.476698833041279	8.07509816236524	0.75
0.75	a soldier	an adult	68	random	1	118	1	unidentified	impersonal	k	No	8.31727776622123	N/A	-1	0.64466081871345	0.0211650819950794	0.7106783625731	1	0	TRUE	0.2893216374269	0	0.205162693977135	8.1121150722441	0.75
0.85	a billionaire	a celebrity	68	random	1	145	1	strangle	personal	k	No	7.83715965000168	N/A	-1	0.564427184466019	0.047192987496258	0.871145631067961	1	0	TRUE	0.128854368932039	0	-0.198263029825004	8.03542267982668	0.85
0.85	a congressman	an addict	68	random	1	40	1	unidentified	personal	k	No	8.1164170727942	N/A	-1	0.594731132075472	0.0469805898824301	0.810537735849057	1	0	TRUE	0.189462264150943	0	-0.221390268523153	8.33780734131736	0.85
0.85	an olympian	an adult	68	random	1	167	1	unidentified	personal	k	No	8.26539293085222	N/A	-1	0.441499015748031	0.0214135628602502	0.882998031496063	-1	1	FALSE	-0.117001968503937	1	0.291923952228472	7.97346897862375	0.85
0.85	an olympian	an adult	68	random	1	146	1	unidentified	impersonal	k	No	7.82564473221999	N/A	-1	0.441499015748031	0.0214135628602502	0.882998031496063	-1	1	FALSE	-0.117001968503937	1	-0.206951455303556	8.03259618752354	0.85
0.85	a nun	a celebrity	68	random	1	36	1	strangle	personal	d	Yes	8.51358669582213	N/A	-1	0.562896396396396	0.0452527991825021	0.874207207207207	1	1	TRUE	0.125792792792793	1	0.164037601494181	8.34954909432794	0.85
0.85	a billionaire	a mentor	68	random	1	50	1	strangle	personal	k	No	8.56541176368671	N/A	-1	0.427509090909091	0.0464873331836394	0.855018181818182	-1	1	FALSE	-0.144981818181818	1	0.256886615153112	8.3085251485336	0.85
0.85	a billionaire	a police officer	68	random	1	148	1	strangle	impersonal	k	No	8.2960476427647	N/A	-1	0.426482905982906	0.0432685297618225	0.852965811965812	-1	1	FALSE	-0.147034188034188	1	0.269101457506979	8.02694618525772	0.85
0.85	an orphan	a college student	68	random	1	172	1	unidentified	personal	d	Yes	7.96935774201635	N/A	-1	0.569897321428571	0.0453850588357384	0.860205357142857	1	1	TRUE	0.139794642857143	1	0.00990240041316515	7.95945534160318	0.85
0.85	a nun	a mentor	68	random	1	113	1	strangle	impersonal	k	No	8.83564692253477	N/A	-1	0.40363025210084	0.0430763489029721	0.807260504201681	-1	1	FALSE	-0.192739495798319	1	0.70924943632984	8.12639748620493	0.85
0.85	a homeless adult	a celebrity	68	random	1	182	1	strangle	impersonal	k	No	7.58171964012531	N/A	-1	0.561301724137931	0.043660051775605	0.877396551724138	1	0	TRUE	0.122603448275862	0	-0.349782272449644	7.93150191257495	0.85
0.85	a homeless adult	an adult	68	random	1	21	1	strangle	personal	k	No	9.11195547005478	N/A	-1	0.419998076923077	0.0217076303985325	0.839996153846154	-1	1	FALSE	-0.160003846153846	1	0.718227343535744	8.39372812651904	0.85
0.85	a college student	an astronaut	68	random	1	161	1	unidentified	personal	k	No	8.48920515487607	N/A	-1	0.559730434782609	0.0452858686847247	0.880539130434783	1	0	TRUE	0.119460869565217	0	0.498887239914803	7.99031791496127	0.85
0.85	an elderly person	an orphan	68	random	1	66	1	unidentified	impersonal	k	No	8.33686963728496	N/A	-1	0.432497797356828	0.022613711313965	0.864995594713656	-1	1	FALSE	-0.135004405286344	1	0.0749822436194147	8.26188739366554	0.85
0.85	a celebrity	a judge	68	random	1	116	1	strangle	personal	k	No	8.93260863037757	N/A	-1	0.432345454545455	0.0467321018561048	0.864690909090909	-1	1	FALSE	-0.135309090909091	1	0.814783607240443	8.11782502313713	0.85
0.85	a college student	an olympian	68	random	1	62	1	strangle	impersonal	k	No	8.31801027754687	N/A	-1	0.596189814814815	0.0464945129680408	0.80762037037037	1	0	TRUE	0.19237962962963	0	0.044488045463206	8.27352223208367	0.85
0.85	a college student	an orphan	68	random	1	8	1	unidentified	impersonal	k	No	9.01493357563357	N/A	-1	0.430111607142857	0.0458748684890119	0.860223214285714	-1	1	FALSE	-0.139776785714286	1	0.582727913441339	8.43220566219223	0.85
0.85	a pedophile	a terrorist	68	random	1	135	1	unidentified	personal	k	No	7.96137020171951	N/A	-1	0.441440170940171	0.0379273339488484	0.882880341880342	-1	1	FALSE	-0.117119658119658	1	-0.102372160818994	8.0637423625385	0.85
0.85	a pedophile	a terrorist	68	random	1	76	1	strangle	impersonal	k	No	8.69399956752208	N/A	-1	0.441440170940171	0.0379273339488484	0.882880341880342	-1	1	FALSE	-0.117119658119658	1	0.461127737483226	8.23287183003886	0.85
0.85	an orphan	an elderly person	68	random	1	181	1	strangle	impersonal	d	Yes	8.10681603894705	N/A	-1	0.566238986784141	0.0240853831669615	0.867522026431718	1	1	TRUE	0.132477973568282	1	0.172523206900385	7.93429283204667	0.85
0.85	an assassin	a thief	68	random	1	38	1	unidentified	personal	k	No	7.98989937494294	N/A	-1	0.444932773109244	0.0426982625168199	0.889865546218487	-1	1	FALSE	-0.110134453781513	1	-0.353776777412043	8.34367615235498	0.85
0.85	a police officer	an orphan	68	random	1	15	1	strangle	personal	k	No	8.34616759436413	N/A	-1	0.430333333333333	0.0433568010087536	0.860666666666667	-1	1	FALSE	-0.139333333333333	1	-0.0652975285886086	8.41146512295274	0.85
0.85	a convict	a thief	68	random	1	34	1	strangle	personal	k	No	8.66163979578127	N/A	-1	0.592615079365079	0.0399114895793759	0.814769841269841	1	0	TRUE	0.185230158730159	0	0.306213625637339	8.35542617014393	0.85
0.85	a thief	an assassin	68	random	1	115	1	unidentified	impersonal	d	Yes	8.44891435066294	N/A	-1	0.554453781512605	0.0433630770676349	0.89109243697479	1	1	TRUE	0.10890756302521	1	0.328232845087207	8.12068150557574	0.85
0.85	an olympian	a mentor	68	random	1	128	1	unidentified	personal	k	No	8.05674377497531	N/A	-1	0.41071875	0.0446788159109233	0.8214375	-1	1	FALSE	-0.1785625	1	-0.0268817306830496	8.08362550565836	0.85
0.85	a police officer	an olympian	68	random	1	164	1	unidentified	impersonal	k	No	7.89319886954461	N/A	-1	0.594406779661017	0.0430043211241924	0.811186440677966	1	0	TRUE	0.188813559322034	0	-0.0886901314554231	7.98188900100003	0.85
0.85	an astronaut	a homeless adult	68	random	1	55	1	unidentified	impersonal	k	No	8.18367658262066	N/A	-1	0.560189516129032	0.0435622710442108	0.879620967741936	1	0	TRUE	0.120379032258064	0	-0.110246056525874	8.29392263914653	0.85
0.95	a college student	a mentor	68	random	1	188	1	strangle	impersonal	k	No	7.82164312623998	N/A	-1	0.507369565217391	0.0450261890233075	0.985260869565217	1	0	TRUE	0.014739130434783	0	-0.0931338734831781	7.91477699972316	0.95
0.95	a judge	a homeless adult	68	random	1	77	1	unidentified	personal	k	No	7.83952558170468	N/A	-1	0.506430327868852	0.0430057195026746	0.987139344262295	1	0	TRUE	0.012860655737705	0	-0.390450302496915	8.22997588420159	0.95
0.95	a college student	a mentor	68	random	1	25	1	unidentified	personal	d	Yes	9.22424327714517	N/A	-1	0.507369565217391	0.0450261890233075	0.985260869565217	1	1	TRUE	0.014739130434783	1	0.842319031456844	8.38192424568833	0.95
0.95	a homeless adult	an olympian	68	random	1	60	1	strangle	impersonal	k	No	8.09193345597989	N/A	-1	0.490957264957265	0.0460227884668888	0.98191452991453	-1	1	FALSE	-0.01808547008547	1	-0.187412338175669	8.27934579415556	0.95
0.95	a homeless adult	a judge	68	random	1	119	1	strangle	personal	k	No	8.52931937121408	N/A	-1	0.493016393442623	0.043771653076872	0.986032786885246	-1	1	FALSE	-0.013967213114754	1	0.420057768131144	8.10926160308293	0.95
0.95	a billionaire	a homeless adult	68	random	1	58	1	unidentified	impersonal	k	No	8.09009578318096	N/A	-1	0.511178260869565	0.0440023595312488	0.97764347826087	1	0	TRUE	0.0223565217391301	0	-0.195077672132022	8.28517345531298	0.95
0.95	a billionaire	a nun	68	random	1	98	1	unidentified	personal	k	No	8.00068478451475	N/A	-1	0.509840909090909	0.0465341298327247	0.980318181818182	1	0	TRUE	0.019681818181818	0	-0.168710996817827	8.16939578133258	0.95
0.95	a homeless adult	an olympian	68	random	1	99	1	unidentified	personal	k	No	8.12237124340655	N/A	-1	0.490957264957265	0.0460227884668888	0.98191452991453	-1	1	FALSE	-0.01808547008547	1	-0.044150920044645	8.1665221634512	0.95
0.95	an astronaut	a mentor	68	random	1	61	1	unidentified	impersonal	k	No	8.52971447196991	N/A	-1	0.45096218487395	0.0450928505904056	0.901924369747899	-1	1	FALSE	-0.098075630252101	1	0.253280971055736	8.27643350091417	0.95
0.95	an adult	a police officer	68	random	1	19	1	unidentified	personal	k	No	9.00981411052738	N/A	-1	0.466609195402299	0.021280498265421	0.933218390804598	-1	1	FALSE	-0.066781609195402	1	0.610177811480586	8.3996362990468	0.95
0.95	an astronaut	an adult	68	random	1	41	1	unidentified	impersonal	k	No	8.78905071352105	N/A	-1	0.484125968992248	0.0222927477240514	0.968251937984496	-1	1	FALSE	-0.031748062015504	1	0.454176229529837	8.33487448399121	0.95
0.95	a gang member	a thief	68	random	1	97	1	strangle	impersonal	k	No	8.40491994893345	N/A	-1	0.532396551724138	0.0432550026250051	0.935206896551724	1	0	TRUE	0.064793103448276	0	0.232649538557149	8.1722704103763	0.95
0.95	a judge	an olympian	68	random	1	79	1	unidentified	personal	k	No	7.71646080017636	N/A	-1	0.491022727272727	0.0456335484834729	0.982045454545455	-1	1	FALSE	-0.017954545454545	1	-0.507726247974244	8.2241870481506	0.95
0.95	a billionaire	a homeless adult	68	random	1	91	1	strangle	personal	k	No	7.8804263442924	N/A	-1	0.511178260869565	0.0440023595312488	0.97764347826087	1	0	TRUE	0.0223565217391301	0	-0.309113094689461	8.18953943898186	0.95
0.95	a college student	a police officer	68	random	1	31	1	strangle	impersonal	d	Yes	9.14878406627708	N/A	-1	0.49947520661157	0.0442761756808238	0.99895041322314	-1	0	FALSE	-0.00104958677685996	0	0.784534525087929	8.36424954118915	0.95
0.95	a nun	a judge	68	random	1	92	1	strangle	impersonal	k	No	7.99833539595298	N/A	-1	0.496619658119658	0.0449779150299261	0.993239316239316	-1	1	FALSE	-0.00676068376068395	1	-0.188323339534761	8.18665873548774	0.95
0.95	a thief	a gang member	68	random	1	78	1	strangle	impersonal	k	No	8.28878581042693	N/A	-1	0.470495689655172	0.0443674423162347	0.940991379310345	-1	1	FALSE	-0.059008620689655	1	0.0617048534019826	8.22708095702495	0.95
0.95	an astronaut	an olympian	68	random	1	173	1	unidentified	impersonal	k	No	7.84619881549743	N/A	-1	0.549508928571429	0.0459161466591998	0.900982142857143	1	0	TRUE	0.099017857142857	0	-0.110456755619922	7.95665557111735	0.95
0.95	a terrorist	a rapist	68	random	1	133	1	strangle	impersonal	k	No	8.61050136854989	N/A	-1	0.534570833333333	0.0374661061282591	0.930858333333333	1	0	TRUE	0.069141666666667	0	0.541083103673451	8.06941826487644	0.95
0.05	a rapist	a college student	65	random	1	43	1	strangle	personal	d	No	7.76556908109732	N/A	-1	0.0190889830508475	0.0118794054974102	0.0381779661016949	-1	1	FALSE	-0.961822033898305	1	-0.107652758128938	7.87322183922625	0.05
0.05	a nun	a rapist	65	random	1	186	1	unidentified	impersonal	k	Yes	7.55328660560042	N/A	-1	0.965959016393443	0.0151617466576712	0.0680819672131148	1	1	TRUE	0.931918032786885	1	-0.319935152986637	7.87322175858706	0.05
0.05	a police officer	a rapist	65	random	1	210	1	unidentified	personal	k	Yes	7.67740043051481	N/A	-1	0.971755813953488	0.0133574841599217	0.0564883720930234	1	1	TRUE	0.943511627906977	1	-0.195821328072248	7.87322175858706	0.05
0.05	a mentor	a terrorist	65	random	1	49	1	unidentified	personal	k	Yes	7.6251071482389	N/A	-1	0.981086206896552	0.0116049218212286	0.0378275862068966	1	1	TRUE	0.962172413793103	1	-0.24811461855246	7.87322176679136	0.05
0.05	a rapist	a police officer	65	random	1	196	1	unidentified	personal	d	No	7.63723438878947	N/A	-1	0.0283488372093023	0.0148293388570993	0.0566976744186046	-1	1	FALSE	-0.943302325581395	1	-0.235987369797583	7.87322175858706	0.05
0.05	a terrorist	a soldier	65	random	1	37	1	unidentified	personal	d	No	7.87016594646984	N/A	-1	0.0114736842105263	0.00911274417691613	0.0229473684210526	-1	1	FALSE	-0.977052631578947	1	-0.00305660471096658	7.87322255118081	0.05
0.05	a rapist	a mentor	65	random	1	152	1	strangle	impersonal	d	No	7.34729970074316	N/A	-1	0.0193401639344262	0.0115089709212261	0.0386803278688524	-1	1	FALSE	-0.961319672131148	1	-0.525922057843891	7.87322175858706	0.05
0.05	a nun	a pedophile	65	random	1	139	1	strangle	personal	k	Yes	7.84619881549743	N/A	-1	0.982033333333333	0.0109620380125458	0.0359333333333334	1	1	TRUE	0.964066666666667	1	-0.02702294308963	7.87322175858706	0.05
0.05	a judge	a pedophile	65	random	1	23	1	strangle	impersonal	k	Yes	7.91022370709734	N/A	-1	0.978474576271186	0.0129490159244244	0.0430508474576272	1	1	TRUE	0.956949152542373	1	0.0368379294422834	7.87338577765506	0.05
0.05	a soldier	a pedophile	65	random	1	114	1	unidentified	impersonal	k	Yes	7.5251007461258	N/A	-1	0.99491452991453	0.00615737074987295	0.0101709401709402	1	1	TRUE	0.98982905982906	1	-0.348121012461255	7.87322175858706	0.05
0.05	a soldier	a rapist	65	random	1	62	1	strangle	impersonal	k	Yes	8.22469956196723	N/A	-1	0.989045833333333	0.0086398409541394	0.0219083333333334	1	1	TRUE	0.978091666666667	1	0.351477803322155	7.87322175864508	0.05
0.05	a terrorist	a judge	65	random	1	65	1	unidentified	personal	d	No	7.39018142822643	N/A	-1	0.0406304347826087	0.0174802827832992	0.0812608695652174	-1	1	FALSE	-0.918739130434783	1	-0.483040330379134	7.87322175860556	0.05
0.05	a pedophile	a college student	65	random	1	5	1	unidentified	personal	d	No	7.8458075026378	N/A	-1	0.00853448275862069	0.00777160174937867	0.0170689655172414	-1	1	FALSE	-0.982931034482759	1	-0.183156941560255	8.02896444419806	0.05
0.05	a pedophile	a college student	65	random	1	80	1	strangle	personal	d	No	8.01961279440027	N/A	-1	0.00853448275862069	0.00777160174937867	0.0170689655172414	-1	1	FALSE	-0.982931034482759	1	0.14639103581315	7.87322175858712	0.05
0.05	a pedophile	a mentor	65	random	1	154	1	unidentified	personal	d	No	7.82003798945875	N/A	-1	0.00932083333333333	0.00793031001287045	0.0186416666666667	-1	1	FALSE	-0.981358333333333	1	-0.0531837691283021	7.87322175858706	0.05
0.05	an olympian	a rapist	65	random	1	117	1	unidentified	impersonal	k	Yes	7.56527528189893	N/A	-1	0.968265217391304	0.015292962026435	0.0634695652173913	1	1	TRUE	0.936530434782609	1	-0.307946476688124	7.87322175858706	0.05
0.05	an assassin	a soldier	65	random	1	73	1	strangle	impersonal	d	No	7.60638738977265	N/A	-1	0.0365466101694915	0.0160574412698022	0.073093220338983	-1	1	FALSE	-0.926906779661017	1	-0.266834368815283	7.87322175858793	0.05
0.05	a terrorist	a mentor	65	random	1	142	1	strangle	impersonal	d	No	7.90765159471109	N/A	-1	0.0197887931034483	0.0123865069018111	0.0395775862068966	-1	1	FALSE	-0.960422413793103	1	0.0344298361240334	7.87322175858706	0.05
0.05	a pedophile	an adult	65	random	1	30	1	unidentified	impersonal	d	No	7.53849499941346	N/A	-1	0.0145968992248062	0.00519678652138313	0.0291937984496125	-1	1	FALSE	-0.970806201550388	1	-0.334738160949295	7.87323316036276	0.05
0.05	a pedophile	an elderly person	65	random	1	143	1	strangle	personal	d	No	8.0507033814703	N/A	-1	0.0109421397379913	0.00493480018781041	0.0218842794759825	-1	1	FALSE	-0.978115720524018	1	0.177481622883244	7.87322175858706	0.05
0.05	a pedophile	an olympian	65	random	1	77	1	unidentified	personal	d	No	7.50108212425987	N/A	-1	0.0166814159292035	0.0113395845949436	0.033362831858407	-1	1	FALSE	-0.966637168141593	1	-0.372139634327376	7.87322175858725	0.05
0.05	a rapist	an olympian	65	random	1	202	1	unidentified	impersonal	d	No	7.79975331828725	N/A	-1	0.0322869565217391	0.0151979644584838	0.0645739130434783	-1	1	FALSE	-0.935426086956522	1	-0.0734684402998083	7.87322175858706	0.05
0.05	a terrorist	an astronaut	65	random	1	162	1	strangle	personal	d	No	7.55747290161475	N/A	-1	0.0222008547008547	0.0132675712338883	0.0444017094017094	-1	1	FALSE	-0.955598290598291	1	-0.315748856972309	7.87322175858706	0.05
0.05	a college student	a rapist	65	random	1	13	1	unidentified	personal	k	Yes	7.66996199547358	N/A	-1	0.981792372881356	0.0114517328064306	0.0364152542372882	1	1	TRUE	0.963584745762712	1	-0.21065698091655	7.88061897639013	0.05
0.05	a nun	a terrorist	65	random	1	67	1	unidentified	personal	k	Yes	8.23323750070527	N/A	-1	0.962629310344828	0.0159160524503015	0.0747413793103449	1	1	TRUE	0.925258620689655	1	0.360015742109574	7.8732217585957	0.05
0.05	an orphan	a pedophile	65	random	1	88	1	unidentified	personal	k	Yes	7.54486106865846	N/A	-1	0.994235042735043	0.00657559780520727	0.0115299145299146	1	1	TRUE	0.988470085470085	1	-0.3283606899286	7.87322175858706	0.05
0.05	an orphan	a pedophile	65	random	1	16	1	unidentified	impersonal	k	Yes	7.39817409297047	N/A	-1	0.994235042735043	0.00657559780520727	0.0115299145299146	1	1	TRUE	0.988470085470085	1	-0.477407144996556	7.87558123796702	0.05
0.05	a police officer	a terrorist	65	random	1	87	1	unidentified	personal	k	Yes	7.67786350067821	N/A	-1	0.967528455284553	0.0154076421390486	0.0649430894308942	1	1	TRUE	0.935056910569106	1	-0.19535825790885	7.87322175858706	0.05
0.05	a homeless adult	a rapist	65	random	1	205	1	unidentified	personal	k	Yes	7.63819824428578	N/A	-1	0.962933070866142	0.0162153777731943	0.0741338582677165	1	1	TRUE	0.925866141732284	1	-0.235023514301276	7.87322175858706	0.05
0.05	a terrorist	an orphan	65	random	1	7	1	unidentified	personal	d	No	7.4730690880322	N/A	-1	0.0131622807017544	0.00967288030514379	0.0263245614035088	-1	1	FALSE	-0.973675438596491	1	-0.472859104814759	7.94592819284696	0.05
0.05	a terrorist	an orphan	65	random	1	61	1	unidentified	personal	d	No	7.96102146588337	N/A	-1	0.0131622807017544	0.00967288030514379	0.0263245614035088	-1	1	FALSE	-0.973675438596491	1	0.0877997072113903	7.87322175867198	0.05
0.05	an orphan	an assassin	65	random	1	25	1	unidentified	personal	k	Yes	7.95647679803678	N/A	-1	0.96014406779661	0.0165853349477485	0.0797118644067796	1	1	TRUE	0.92028813559322	1	0.0831784692946753	7.87329832874211	0.05
0.05	a homeless adult	a terrorist	65	random	1	10	1	strangle	personal	k	Yes	7.9885429827377	N/A	-1	0.961235537190083	0.0159948967671267	0.0775289256198346	1	1	TRUE	0.922471074380165	1	0.0921301627280737	7.89641282000962	0.05
0.15	an adult	an assassin	65	random	1	150	1	unidentified	impersonal	k	Yes	8.13856473726163	N/A	-1	0.924879110251451	0.0115555885996018	0.150241779497099	1	1	TRUE	0.849758220502901	1	0.265342978674576	7.87322175858706	0.15
0.15	a billionaire	a pedophile	65	random	1	18	1	unidentified	impersonal	k	Yes	7.72444664563354	N/A	-1	0.945653153153153	0.0195557877199045	0.108693693693694	1	1	TRUE	0.891306306306306	1	-0.149876605018806	7.87432325065234	0.15
0.15	a nun	an assassin	65	random	1	163	1	unidentified	impersonal	k	Yes	7.8808043446749	N/A	-1	0.909179166666667	0.0251710417297026	0.181641666666667	1	1	TRUE	0.818358333333333	1	0.00758258608784601	7.87322175858706	0.15
0.15	a celebrity	a pedophile	65	random	1	165	1	strangle	personal	k	Yes	7.57712193087668	N/A	-1	0.925915178571429	0.0227875571416442	0.148169642857143	1	1	TRUE	0.851830357142857	1	-0.296099827710377	7.87322175858706	0.15
0.15	a celebrity	a rapist	65	random	1	173	1	strangle	impersonal	k	Yes	7.70930833338587	N/A	-1	0.908326086956522	0.0245186463423413	0.183347826086957	1	1	TRUE	0.816652173913043	1	-0.163913425201186	7.87322175858706	0.15
0.15	a billionaire	a rapist	65	random	1	193	1	strangle	personal	k	Yes	7.70255611326858	N/A	-1	0.931118421052632	0.0216741212562138	0.137763157894737	1	1	TRUE	0.862236842105263	1	-0.170665645318473	7.87322175858706	0.15
0.15	a thief	a college student	65	random	1	171	1	unidentified	personal	d	No	7.83676478326407	N/A	-1	0.0824122807017544	0.0239731304522996	0.164824561403509	-1	1	FALSE	-0.835175438596491	1	-0.0364569753229889	7.87322175858706	0.15
0.15	a mentor	an assassin	65	random	1	200	1	strangle	impersonal	k	Yes	8.54305585094196	N/A	-1	0.940016666666667	0.0208050291546784	0.119966666666667	1	1	TRUE	0.880033333333333	1	0.669834092354909	7.87322175858706	0.15
0.15	an assassin	a judge	65	random	1	68	1	strangle	impersonal	d	No	7.54380286750151	N/A	-1	0.0978319327731092	0.0262375827152572	0.195663865546219	-1	1	FALSE	-0.804336134453781	1	-0.32941889109145	7.87322175859296	0.15
0.15	an orphan	a thief	65	random	1	129	1	strangle	personal	k	Yes	7.55328660560042	N/A	-1	0.941804347826087	0.0208558763007436	0.116391304347826	1	1	TRUE	0.883608695652174	1	-0.319935152986637	7.87322175858706	0.15
0.15	a gang member	an orphan	65	random	1	115	1	unidentified	personal	d	No	7.26122509197192	N/A	-1	0.0793217391304348	0.0243570820325199	0.15864347826087	-1	1	FALSE	-0.84135652173913	1	-0.611996666615134	7.87322175858706	0.15
0.15	an adult	a thief	65	random	1	209	1	strangle	impersonal	k	Yes	7.65964295456468	N/A	-1	0.902342412451362	0.0127988895254033	0.195315175097276	1	1	TRUE	0.804684824902724	1	-0.213578804022373	7.87322175858706	0.15
0.15	a soldier	a thief	65	random	1	4	1	strangle	impersonal	k	Yes	8.21608809863232	N/A	-1	0.94674347826087	0.0191454434156051	0.106513043478261	1	1	TRUE	0.893486956521739	1	0.114923966625227	8.10116413200709	0.15
0.15	a rapist	a billionaire	65	random	1	35	1	strangle	impersonal	d	No	8.12326131912175	N/A	-1	0.0712368421052632	0.0222274189864663	0.142473684210526	-1	1	FALSE	-0.857526315789474	1	0.25003786273887	7.87322345638288	0.15
0.15	a police officer	a thief	65	random	1	157	1	strangle	personal	k	Yes	7.86940171257709	N/A	-1	0.903620967741935	0.025227095999215	0.192758064516129	1	1	TRUE	0.807241935483871	1	-0.00382004600996577	7.87322175858706	0.15
0.15	a college student	a thief	65	random	1	160	1	strangle	personal	k	Yes	7.46221493976819	N/A	-1	0.919609649122807	0.0245418425667323	0.160780701754386	1	1	TRUE	0.839219298245614	1	-0.411006818818866	7.87322175858706	0.15
0.15	a pedophile	a congressman	65	random	1	199	1	unidentified	personal	d	No	7.85941315469358	N/A	-1	0.0896036036036036	0.0257597166712584	0.179207207207207	-1	1	FALSE	-0.820792792792793	1	-0.0138086038934722	7.87322175858706	0.15
0.15	an elderly person	a thief	65	random	1	42	1	unidentified	impersonal	k	Yes	7.76811037852599	N/A	-1	0.92030701754386	0.0125005564843991	0.159385964912281	1	1	TRUE	0.840614035087719	1	-0.105111498083242	7.87322187660923	0.15
0.15	a pedophile	a congressman	65	random	1	1	1	strangle	impersonal	d	No	8.62335338724463	N/A	-1	0.0896036036036036	0.0257597166712584	0.179207207207207	-1	1	FALSE	-0.820792792792793	1	0.0355081413520821	8.58784524589255	0.15
0.15	a college student	a gang member	65	random	1	194	1	unidentified	impersonal	k	Yes	7.66293785046154	N/A	-1	0.900119469026549	0.0265201150219073	0.199761061946903	1	1	TRUE	0.800238938053097	1	-0.21028390812552	7.87322175858706	0.15
0.15	a thief	a mentor	65	random	1	184	1	strangle	personal	d	No	7.66246781520024	N/A	-1	0.0851737288135593	0.0246253796226459	0.170347457627119	-1	1	FALSE	-0.829652542372881	1	-0.210753943386818	7.87322175858706	0.15
0.25	a celebrity	a terrorist	65	random	1	55	1	strangle	personal	k	Yes	7.8898337513943	N/A	-1	0.899215596330275	0.0264266960166984	0.20156880733945	1	1	TRUE	0.79843119266055	1	0.0166119919725265	7.87322175942177	0.25
0.25	a judge	a thief	65	random	1	47	1	unidentified	personal	k	Yes	7.49554194388426	N/A	-1	0.873452586206897	0.029118207322448	0.253094827586207	1	1	TRUE	0.746905172413793	1	-0.37767983227704	7.8732217761613	0.25
0.25	a gang member	an elderly person	65	random	1	198	1	strangle	impersonal	d	No	7.86018505747217	N/A	-1	0.102130769230769	0.0140493864603666	0.204261538461538	-1	1	FALSE	-0.795738461538462	1	-0.0130367011148902	7.87322175858706	0.25
0.25	a nun	a gang member	65	random	1	191	1	unidentified	personal	k	Yes	8.00536706731666	N/A	-1	0.855568376068376	0.0314420511569738	0.288863247863248	1	1	TRUE	0.711136752136752	1	0.132145308729609	7.87322175858706	0.25
0.25	a college student	a convict	65	random	1	71	1	unidentified	impersonal	k	Yes	8.14206328310415	N/A	-1	0.85069918699187	0.0309375868081588	0.29860162601626	1	1	TRUE	0.70139837398374	1	0.268841524515208	7.87322175858894	0.25
0.25	an addict	a soldier	65	random	1	181	1	unidentified	impersonal	d	No	7.76768727718691	N/A	-1	0.143455752212389	0.0317269819193233	0.286911504424779	-1	1	FALSE	-0.713088495575221	1	-0.105534481400148	7.87322175858706	0.25
0.25	a gang member	a homeless adult	65	random	1	128	1	strangle	impersonal	d	No	7.90211754627645	N/A	-1	0.143426229508197	0.0310046374583968	0.286852459016393	-1	1	FALSE	-0.713147540983607	1	0.0288957876893923	7.87322175858706	0.25
