overlapRound	Item1	Item2	sn	cond	sess	trial	trial_type	title	typeOfScen	keybResp	keyDef	keybRT	rtBeep	rtDeadline	averageP	sdP	overlap	direct.xVy	correct	targetPresent	dirOverlap	correct01	res.RT	fit.RT	overlapRoundSN
0.05	a college student	a pedophile	50	torture	1	114	1	strangle	impersonal	d	Yes	8.85337967292763	N/A	-1	0.961213114754098	0.0176425906742174	0.0775737704918034	1	1	TRUE	0.922426229508197	1	0.43383515402839	8.41954451889924	0.05
0.05	a rapist	an adult	50	torture	1	31	1	strangle	personal	k	No	8.3790798892866	N/A	-1	0.04288	0.0186793607631128	0.0857600000000001	-1	1	FALSE	-0.91424	1	-0.372432485765331	8.75151237505193	0.05
0.05	a mentor	a rapist	50	torture	1	110	1	strangle	personal	d	Yes	8.44333134281778	N/A	-1	0.950279069767442	0.0195449724178816	0.0994418604651164	1	1	TRUE	0.900558139534884	1	0.00778837301962184	8.43554296979816	0.05
0.05	a mentor	a terrorist	50	torture	1	8	1	strangle	impersonal	d	Yes	8.61377528926248	N/A	-1	0.95297520661157	0.0189202799156536	0.0940495867768594	1	1	TRUE	0.905950413223141	1	-0.229728178458273	8.84350346772075	0.05
0.05	a college student	a terrorist	50	torture	1	25	1	unidentified	personal	d	Yes	8.71997075677757	N/A	-1	0.954008547008547	0.0198968379250805	0.091982905982906	1	1	TRUE	0.908017094017094	1	-0.0555392946227479	8.77551005140032	0.05
0.05	an orphan	a rapist	50	torture	1	97	1	strangle	personal	d	Yes	8.63034328934889	N/A	-1	0.0348650793650794	0.0158741101836107	0.0697301587301588	1	1	TRUE	0.930269841269841	1	0.142805354129226	8.48753793521967	0.05
0.05	an astronaut	a rapist	50	torture	1	103	1	strangle	personal	d	Yes	8.55429627936774	N/A	-1	0.0476384615384615	0.0184543359451891	0.095276923076923	1	1	TRUE	0.904723076923077	1	0.0907560204964612	8.46354025887128	0.05
0.05	a pedophile	a soldier	50	torture	1	51	1	strangle	impersonal	k	No	8.11790894238315	N/A	-1	0.0253951612903226	0.0142856636459407	0.0507903225806452	-1	1	FALSE	-0.949209677419355	1	-0.553611178174153	8.67152012055731	0.05
0.05	an elderly person	a terrorist	50	torture	1	69	1	unidentified	personal	d	Yes	8.1744211526465	N/A	-1	0.0362586206896552	0.0177171171099633	0.0725172413793104	1	1	TRUE	0.92748275862069	1	-0.425105938865647	8.59952709151214	0.05
0.05	an elderly person	a pedophile	50	torture	1	55	1	unidentified	personal	d	Yes	9.03169206054852	N/A	-1	0.0328429752066116	0.016647060031823	0.0656859504132231	1	1	TRUE	0.934314049586777	1	0.376170390890142	8.65552166965838	0.05
0.05	an elderly person	a terrorist	50	torture	1	39	1	strangle	impersonal	d	Yes	8.60079877527103	N/A	-1	0.0362586206896552	0.0177171171099633	0.0725172413793104	1	1	TRUE	0.92748275862069	1	-0.118716697983049	8.71951547325408	0.05
0.05	a rapist	a mentor	50	torture	1	81	1	unidentified	impersonal	k	No	8.30176976311717	N/A	-1	0.950279069767442	0.0195449724178816	0.0994418604651164	-1	1	FALSE	-0.900558139534884	1	-0.249761975698202	8.55153173881537	0.05
0.05	an olympian	a pedophile	50	torture	1	43	1	strangle	personal	d	Yes	8.59025776227324	N/A	-1	0.0391949152542373	0.0182843377994394	0.0783898305084746	1	1	TRUE	0.921610169491525	1	-0.113259260081915	8.70351702235516	0.05
0.15	an assassin	an orphan	50	torture	1	26	1	unidentified	personal	k	No	8.021256180144	N/A	-1	0.0619596774193548	0.0219733054731573	0.12391935483871	-1	1	FALSE	-0.87608064516129	1	-0.750254258531594	8.77151043867559	0.15
0.15	a rapist	a nun	50	torture	1	34	1	strangle	personal	k	No	8.56159277871292	N/A	-1	0.926565891472868	0.0231368782695567	0.146868217054264	-1	1	FALSE	-0.853131782945736	1	-0.177920758164817	8.73951353687774	0.15
0.15	a mentor	an assassin	50	torture	1	5	1	strangle	personal	d	Yes	9.32572052301626	N/A	-1	0.900732283464567	0.0279379356743691	0.198535433070866	1	1	TRUE	0.801464566929134	1	0.470218217121308	8.85550230589495	0.15
0.15	an elderly person	an assassin	50	torture	1	42	1	unidentified	impersonal	d	Yes	8.50916101971897	N/A	-1	0.0712727272727273	0.0231500429987852	0.142545454545455	1	1	TRUE	0.857454545454545	1	-0.198355615360916	8.70751663507989	0.15
0.15	a thief	an orphan	50	torture	1	89	1	unidentified	impersonal	k	No	8.11492297420459	N/A	-1	0.0788474576271186	0.0245323452626974	0.157694915254237	-1	1	FALSE	-0.842305084745763	1	-0.404611862812925	8.51953483701752	0.15
0.15	a gang member	a soldier	50	torture	1	19	1	strangle	impersonal	d	Yes	7.72533003791713	N/A	-1	0.0983361344537815	0.0267793798426612	0.196672268907563	-1	0	FALSE	-0.803327731092437	0	-1.07417768983157	8.79950772774871	0.15
0.15	a nun	a terrorist	50	torture	1	14	1	strangle	impersonal	d	Yes	9.32705617167214	N/A	-1	0.924688524590164	0.0232050767994503	0.150622950819672	1	1	TRUE	0.849377049180328	1	0.507550380299778	8.81950579137237	0.15
0.15	a gang member	a soldier	50	torture	1	82	1	strangle	impersonal	k	No	8.71177264560569	N/A	-1	0.0983361344537815	0.0267793798426612	0.196672268907563	-1	1	FALSE	-0.803327731092437	1	0.164240519515056	8.54753212609064	0.15
0.15	a homeless adult	a pedophile	50	torture	1	67	1	unidentified	impersonal	d	Yes	9.11591979635669	N/A	-1	0.924580152671756	0.0228070940929906	0.150839694656488	1	1	TRUE	0.849160305343512	1	0.508393479395084	8.60752631696161	0.15
0.25	a celebrity	a rapist	50	torture	1	22	1	strangle	personal	d	Yes	9.36606124697296	N/A	-1	0.874705882352941	0.0295773111610786	0.250588235294118	1	1	TRUE	0.749411764705882	1	0.578552357398442	8.78750888957452	0.25
0.25	a celebrity	a rapist	50	torture	1	116	1	unidentified	personal	k	No	9.2037184956673	N/A	-1	0.874705882352941	0.0295773111610786	0.250588235294118	1	0	TRUE	0.749411764705882	0	0.792173202217524	8.41154529344977	0.25
0.25	an assassin	an adult	50	torture	1	113	1	strangle	impersonal	k	No	9.07463518981081	N/A	-1	0.891219512195122	0.0287833976459904	0.217560975609756	-1	1	FALSE	-0.782439024390244	1	0.651091058186842	8.42354413162397	0.25
0.25	a gang member	an olympian	50	torture	1	48	1	unidentified	impersonal	k	No	8.36474106822456	N/A	-1	0.146115044247788	0.033726456015061	0.292230088495575	-1	1	FALSE	-0.707769911504425	1	-0.318777890506941	8.6835189587315	0.25
0.25	a thief	an adult	50	torture	1	18	1	strangle	personal	k	No	8.69734573092535	N/A	-1	0.105282051282051	0.0286804498462789	0.210564102564103	-1	1	FALSE	-0.789435897435897	1	-0.106161609548088	8.80350734047344	0.25
0.25	a mentor	a thief	50	torture	1	92	1	strangle	personal	d	Yes	8.99205997632796	N/A	-1	0.874157024793388	0.0289866802663697	0.251685950413223	1	1	TRUE	0.748314049586777	1	0.484523977484636	8.50753599884332	0.25
0.25	an assassin	a nun	50	torture	1	64	1	strangle	impersonal	k	No	8.56121007683301	N/A	-1	0.856574803149606	0.0288044337409113	0.286850393700787	-1	1	FALSE	-0.713149606299213	1	-0.0583150783027886	8.6195251551358	0.25
0.25	a police officer	an assassin	50	torture	1	29	1	strangle	impersonal	d	Yes	9.52398254609749	N/A	-1	0.883398496240602	0.0273431689265252	0.233203007518797	1	1	TRUE	0.766796992481203	1	0.764470945596098	8.7595116005014	0.25
0.25	an astronaut	a thief	50	torture	1	90	1	unidentified	personal	k	No	8.92598608961708	N/A	-1	0.117528455284553	0.028543869533805	0.235056910569106	1	0	TRUE	0.764943089430894	0	0.41045086532429	8.51553522429279	0.25
0.25	a thief	a police officer	50	torture	1	35	1	unidentified	personal	k	No	9.05111014640562	N/A	-1	0.854661417322835	0.0310637653465034	0.290677165354331	-1	1	FALSE	-0.709322834645669	1	0.315596222252616	8.73551392415301	0.25
0.25	an elderly person	a gang member	50	torture	1	32	1	unidentified	personal	k	No	8.2398574110186	N/A	-1	0.111577586206897	0.0281335799456093	0.223155172413793	1	0	TRUE	0.776844827586207	0	-0.507655351308602	8.7475127623272	0.25
0.35	a homeless adult	a gang member	50	torture	1	71	1	unidentified	personal	k	No	8.25634777291802	N/A	-1	0.160920634920635	0.0318311457321075	0.32184126984127	1	0	TRUE	0.67815873015873	0	-0.335180093144666	8.59152786606268	0.35
0.35	a thief	a homeless adult	50	torture	1	108	1	strangle	personal	k	No	8.98067560367171	N/A	-1	0.812293650793651	0.0340138088006348	0.375412698412698	-1	1	FALSE	-0.624587301587302	1	0.537133408424085	8.44354219524762	0.35
0.35	a homeless adult	a gang member	50	torture	1	111	1	unidentified	personal	k	No	7.9912539298402	N/A	-1	0.160920634920635	0.0318311457321075	0.32184126984127	1	0	TRUE	0.67815873015873	0	-0.44028942723323	8.43154335707343	0.35
0.35	an addict	an elderly person	50	torture	1	59	1	strangle	personal	k	No	9.14537509312382	N/A	-1	0.179964912280702	0.0371848237841866	0.359929824561404	-1	1	FALSE	-0.640070175438596	1	0.505851874364366	8.63952321875946	0.35
0.35	a convict	a mentor	50	torture	1	91	1	strangle	impersonal	k	No	8.53030683056162	N/A	-1	0.158511450381679	0.0320277711300361	0.317022900763359	-1	1	FALSE	-0.682977099236641	1	0.0187712189935658	8.51153561156806	0.35
0.35	an addict	a soldier	50	torture	1	117	1	strangle	impersonal	k	No	8.83506493503108	N/A	-1	0.81148717948718	0.0363332669184672	0.377025641025641	-1	1	FALSE	-0.622974358974359	1	0.427519254306035	8.40754568072504	0.35
0.45	an assassin	a congressman	50	torture	1	40	1	unidentified	impersonal	k	No	8.92319149068606	N/A	-1	0.767817391304348	0.0394308863049614	0.464365217391304	-1	1	FALSE	-0.535634782608696	1	0.207675630156708	8.71551586052935	0.45
0.45	a convict	a nun	50	torture	1	78	1	strangle	personal	k	No	8.48115142006897	N/A	-1	0.206212121212121	0.0339590832478958	0.412424242424242	-1	1	FALSE	-0.587575757575758	1	-0.0823791569205899	8.56353057698956	0.45
0.45	an addict	an adult	50	torture	1	93	1	strangle	personal	k	No	9.08772065842827	N/A	-1	0.218608695652174	0.0385640831832313	0.437217391304348	-1	1	FALSE	-0.562782608695652	1	0.58418427230968	8.50353638611859	0.45
0.45	an addict	an astronaut	50	torture	1	68	1	strangle	impersonal	k	No	8.54012816269873	N/A	-1	0.241107438016529	0.0378334440471577	0.482214876033058	-1	1	FALSE	-0.517785123966942	1	-0.0633985415381415	8.60352670423688	0.45
0.45	a gang member	a billionaire	50	torture	1	3	1	strangle	personal	d	Yes	9.25751017645257	N/A	-1	0.777558558558559	0.0391994927445522	0.444882882882883	-1	0	FALSE	-0.555117117117117	0	0.394008645108163	8.86350153134441	0.45
0.45	a thief	a rapist	50	torture	1	60	1	strangle	personal	d	Yes	7.81802793853073	N/A	-1	0.230256	0.0376549646177016	0.460512	1	1	TRUE	0.539488	1	-0.817495667503996	8.63552360603473	0.45
0.45	a congressman	a soldier	50	torture	1	45	1	strangle	impersonal	k	No	8.73632872133291	N/A	-1	0.234396396396396	0.0407064593659514	0.468792792792793	-1	1	FALSE	-0.531207207207207	1	0.0408109244272128	8.6955177969057	0.45
0.55	a celebrity	a gang member	50	torture	1	118	1	strangle	impersonal	k	No	8.2728260036504	N/A	-1	0.744261261261261	0.0398569023490935	0.511477477477478	1	0	TRUE	0.488522522522522	0	-0.130720064349908	8.40354606800031	0.55
0.55	an orphan	a congressman	50	torture	1	119	1	strangle	impersonal	d	Yes	8.42068229103539	N/A	-1	0.258554545454545	0.0403294277635509	0.517109090909091	1	1	TRUE	0.482890909090909	1	0.0211358357598161	8.39954645527558	0.55
0.55	a celebrity	an orphan	50	torture	1	104	1	strangle	personal	k	No	7.87891291229713	N/A	-1	0.296142857142857	0.0426057980742028	0.592285714285714	-1	1	FALSE	-0.407714285714286	1	-0.580627733849415	8.45954064614655	0.55
0.55	a congressman	a gang member	50	torture	1	53	1	strangle	impersonal	k	No	8.40581460343285	N/A	-1	0.707463636363636	0.0443229412173818	0.585072727272727	1	0	TRUE	0.414927272727273	0	-0.257706291674997	8.66352089510785	0.55
0.65	an assassin	an addict	50	torture	1	73	1	unidentified	impersonal	k	No	8.02812905943176	N/A	-1	0.695537190082645	0.0432380485421139	0.608925619834711	-1	1	FALSE	-0.391074380165289	1	-0.55539958118146	8.58352864061322	0.65
0.65	a pedophile	a rapist	50	torture	1	112	1	unidentified	impersonal	k	No	8.1763915966338	N/A	-1	0.323461538461538	0.0419052023836566	0.646923076923077	-1	1	FALSE	-0.353076923076923	1	-0.251152147714902	8.4275437443487	0.65
0.65	a homeless adult	an addict	50	torture	1	49	1	unidentified	personal	k	No	8.70649036194662	N/A	-1	0.664516129032258	0.041885030889668	0.670967741935484	1	0	TRUE	0.329032258064516	0	0.0269710159398469	8.67951934600677	0.65
0.65	a celebrity	a convict	50	torture	1	11	1	unidentified	impersonal	k	No	9.0142038261485	N/A	-1	0.697247933884298	0.0413018844426356	0.605504132231405	1	0	TRUE	0.394495867768595	0	0.182699196601939	8.83150462954656	0.65
0.65	a congressman	an adult	50	torture	1	9	1	unidentified	personal	k	No	8.63141433550626	N/A	-1	0.314082568807339	0.0456033290583103	0.628165137614679	-1	1	FALSE	-0.371834862385321	1	-0.208089519489762	8.83950385499602	0.65
0.65	a convict	a celebrity	50	torture	1	41	1	unidentified	impersonal	k	No	9.14034700015565	N/A	-1	0.697247933884298	0.0413018844426356	0.605504132231405	-1	1	FALSE	-0.394495867768595	1	0.428830752351027	8.71151624780462	0.65
0.65	an orphan	a homeless adult	50	torture	1	6	1	unidentified	impersonal	d	Yes	9.10442414638463	N/A	-1	0.30840157480315	0.041915692975954	0.616803149606299	1	1	TRUE	0.383196850393701	1	0.252921453214417	8.85150269317022	0.65
0.65	a judge	an orphan	50	torture	1	61	1	strangle	impersonal	k	No	8.58354257195777	N/A	-1	0.323033613445378	0.0420214489238273	0.646067226890756	-1	1	FALSE	-0.353932773109244	1	-0.0479814213522231	8.63152399330999	0.65
0.65	a billionaire	an addict	50	torture	1	106	1	strangle	impersonal	k	No	7.96831950001272	N/A	-1	0.665	0.0451950509514715	0.67	1	0	TRUE	0.33	0	-0.483221920684369	8.45154142069708	0.65
0.65	a homeless adult	an orphan	50	torture	1	88	1	strangle	personal	k	No	7.83755436088108	N/A	-1	0.30840157480315	0.041915692975954	0.616803149606299	-1	1	FALSE	-0.383196850393701	1	-0.685980088861165	8.52353444974225	0.65
0.65	an astronaut	a congressman	50	torture	1	86	1	unidentified	personal	k	No	9.00810178134187	N/A	-1	0.346626086956522	0.0439801781580704	0.693252173913044	1	0	TRUE	0.306747826086956	0	0.476568106150158	8.53153367519171	0.65
0.65	a terrorist	a convict	50	torture	1	75	1	strangle	impersonal	k	No	8.13211877295581	N/A	-1	0.6673125	0.0424776671177487	0.665375	-1	1	FALSE	-0.334625	1	-0.44341064220795	8.57552941516376	0.65
0.65	a soldier	a billionaire	50	torture	1	76	1	strangle	personal	k	No	9.01857435635423	N/A	-1	0.33312389380531	0.0441631539761036	0.666247787610619	1	0	TRUE	0.333752212389381	0	0.447044553915204	8.57152980243903	0.65
0.65	a celebrity	an elderly person	50	torture	1	33	1	unidentified	impersonal	k	No	9.30373963623473	N/A	-1	0.306889908256881	0.0457267820266825	0.613779816513761	-1	1	FALSE	-0.386220183486239	1	0.560226486632261	8.74351314960247	0.65
0.65	a nun	an addict	50	torture	1	96	1	strangle	impersonal	k	No	8.72436994920837	N/A	-1	0.66615	0.0448090617920678	0.6677	1	0	TRUE	0.3323	0	0.23283240126397	8.4915375479444	0.65
0.65	a homeless adult	an elderly person	50	torture	1	74	1	strangle	impersonal	k	No	7.99799931797973	N/A	-1	0.317927419354839	0.0421036704340274	0.635854838709677	-1	1	FALSE	-0.364145161290323	1	-0.581529709908758	8.57952902788849	0.65
0.65	a terrorist	an assassin	50	torture	1	30	1	strangle	impersonal	k	No	8.33615081612066	N/A	-1	0.304105691056911	0.0401970001965495	0.608211382113821	-1	1	FALSE	-0.391788617886179	1	-0.419361171656003	8.75551198777667	0.65
0.65	a rapist	a pedophile	50	torture	1	87	1	unidentified	personal	k	No	7.93164402145431	N/A	-1	0.323461538461538	0.0419052023836566	0.646923076923077	1	0	TRUE	0.353076923076923	0	-0.59589004101267	8.52753406246698	0.65
0.75	a police officer	a nun	50	torture	1	94	1	strangle	personal	k	No	7.77064523412918	N/A	-1	0.379908396946565	0.0422025858989117	0.75981679389313	1	0	TRUE	0.24018320610687	0	-0.728891539264685	8.49953677339386	0.75
0.75	a terrorist	a gang member	50	torture	1	62	1	unidentified	personal	k	No	8.86049916761602	N/A	-1	0.621059322033898	0.0439655672850916	0.757881355932203	-1	1	FALSE	-0.242118644067797	1	0.232974787030753	8.62752438058526	0.75
0.75	a police officer	a nun	50	torture	1	52	1	strangle	personal	k	No	8.88405606174246	N/A	-1	0.379908396946565	0.0422025858989117	0.75981679389313	1	0	TRUE	0.24018320610687	0	0.216535553909883	8.66752050783258	0.75
0.75	a college student	a congressman	50	torture	1	84	1	strangle	personal	d	Yes	8.05006542291597	N/A	-1	0.647366972477064	0.0457105945154951	0.705266055045872	1	1	TRUE	0.294733944954128	1	-0.489467477725209	8.53953290064117	0.75
0.75	an adult	an elderly person	50	torture	1	99	1	unidentified	personal	k	No	8.23668532271246	N/A	-1	0.3986	0.0445207984719687	0.7972	-1	1	FALSE	-0.2028	1	-0.242853387057747	8.47953870977021	0.75
0.75	a soldier	a police officer	50	torture	1	85	1	strangle	impersonal	d	Yes	8.93971205409023	N/A	-1	0.376635658914729	0.0411954386978915	0.753271317829457	1	1	TRUE	0.246728682170543	1	0.404178766173786	8.53553328791644	0.75
0.75	a billionaire	an orphan	50	torture	1	20	1	unidentified	impersonal	k	No	8.58073121222023	N/A	-1	0.362955357142857	0.045849382347557	0.725910714285714	-1	1	FALSE	-0.274089285714286	1	-0.214776902803753	8.79550811502398	0.75
0.75	a mentor	a celebrity	50	torture	1	115	1	strangle	personal	k	No	8.55583681500844	N/A	-1	0.352739130434783	0.0430450410601487	0.705478260869565	1	0	TRUE	0.294521739130435	0	0.140291908833939	8.4155449061745	0.75
0.75	an addict	a celebrity	50	torture	1	72	1	strangle	personal	k	No	7.95050243480885	N/A	-1	0.617743119266055	0.0462241766613936	0.76451376146789	-1	1	FALSE	-0.23548623853211	1	-0.637025818529099	8.58752825333795	0.75
0.75	a homeless adult	a mentor	50	torture	1	63	1	unidentified	personal	k	No	8.25270667656764	N/A	-1	0.367046153846154	0.0408210885758222	0.734092307692308	-1	1	FALSE	-0.265907692307692	1	-0.370818091292887	8.62352476786053	0.75
0.75	a celebrity	an addict	50	torture	1	70	1	strangle	personal	k	No	7.6889133368648	N/A	-1	0.617743119266055	0.0462241766613936	0.76451376146789	1	0	TRUE	0.23548623853211	0	-0.906614141922617	8.59552747878741	0.75
0.75	a soldier	a police officer	50	torture	1	121	1	strangle	personal	k	No	9.48402493478411	N/A	-1	0.376635658914729	0.0411954386978915	0.753271317829457	1	0	TRUE	0.246728682170543	0	1.09247770495799	8.39154722982611	0.75
0.75	a mentor	a judge	50	torture	1	10	1	unidentified	impersonal	d	Yes	8.85495031650033	N/A	-1	0.384237704918033	0.0437741689615472	0.768475409836066	1	1	TRUE	0.231524590163934	1	0.0194460742290336	8.83550424227129	0.75
0.75	an adult	a nun	50	torture	1	66	1	unidentified	personal	k	No	8.37516869138682	N/A	-1	0.387950413223141	0.0423644722438221	0.775900826446281	1	0	TRUE	0.224099173553719	0	-0.236357238299518	8.61152592968634	0.75
0.75	a police officer	a homeless adult	50	torture	1	28	1	strangle	impersonal	k	No	8.73761303680885	N/A	-1	0.370433823529412	0.0423215822219775	0.740867647058824	1	0	TRUE	0.259132352941176	0	-0.0258981764172772	8.76351121322613	0.75
0.75	a congressman	a college student	50	torture	1	105	1	unidentified	impersonal	k	No	7.90765159471109	N/A	-1	0.647366972477064	0.0457105945154951	0.705266055045872	-1	1	FALSE	-0.294733944954128	1	-0.547889438710728	8.45554103342182	0.75
0.75	a police officer	a homeless adult	50	torture	1	57	1	unidentified	impersonal	k	No	8.74321260347591	N/A	-1	0.370433823529412	0.0423215822219775	0.740867647058824	1	0	TRUE	0.259132352941176	0	0.0956901592669911	8.64752244420892	0.75
0.85	a judge	a college student	50	torture	1	80	1	unidentified	impersonal	k	No	8.34498036877057	N/A	-1	0.559423728813559	0.0461732538643046	0.881152542372881	-1	1	FALSE	-0.118847457627119	1	-0.210550982769528	8.5555313515401	0.85
0.85	a nun	a college student	50	torture	1	65	1	unidentified	personal	k	No	8.2534880283459	N/A	-1	0.579628099173554	0.0438818601118943	0.840743801652893	-1	1	FALSE	-0.159256198347107	1	-0.362037514065165	8.61552554241107	0.85
0.85	an orphan	a police officer	50	torture	1	17	1	strangle	personal	k	No	8.87108426397835	N/A	-1	0.4134296875	0.0432696242523729	0.826859375	1	0	TRUE	0.173140625	0	0.0635773107801813	8.80750695319817	0.85
0.85	a billionaire	a congressman	50	torture	1	98	1	strangle	impersonal	k	No	8.30251371851416	N/A	-1	0.576893203883495	0.0489141042250305	0.84621359223301	1	0	TRUE	0.15378640776699	0	-0.181024603980778	8.48353832249494	0.85
0.85	a judge	an astronaut	50	torture	1	13	1	unidentified	impersonal	k	No	8.86559399890272	N/A	-1	0.43033064516129	0.0447092980584951	0.860661290322581	-1	1	FALSE	-0.139338709677419	1	0.042088594805627	8.8235054040971	0.85
0.85	a nun	a celebrity	50	torture	1	23	1	unidentified	personal	k	No	8.86883549282689	N/A	-1	0.440539130434783	0.0454318102235983	0.881078260869565	1	0	TRUE	0.118921739130435	0	0.0853262159771102	8.78350927684978	0.85
0.85	a college student	a homeless adult	50	torture	1	47	1	unidentified	personal	k	No	8.90842413949658	N/A	-1	0.578496	0.0448600312795968	0.843008	1	0	TRUE	0.156992	0	0.220905568040345	8.68751857145623	0.85
0.85	a homeless adult	a celebrity	50	torture	1	50	1	strangle	personal	k	No	8.4189186221479	N/A	-1	0.436633333333333	0.045219087529362	0.873266666666667	1	0	TRUE	0.126733333333333	0	-0.256601111134142	8.67551973328204	0.85
0.85	a billionaire	a college student	50	torture	1	46	1	unidentified	impersonal	k	No	9.24145136700124	N/A	-1	0.410381818181818	0.0476239394617643	0.820763636363636	-1	1	FALSE	-0.179236363636364	1	0.549933182820272	8.69151818418096	0.85
0.85	a mentor	an elderly person	50	torture	1	83	1	strangle	personal	k	No	9.3064683990704	N/A	-1	0.410546218487395	0.0455578192041821	0.82109243697479	-1	1	FALSE	-0.17890756302521	1	0.762935885704498	8.54353251336591	0.85
0.85	a police officer	an olympian	50	torture	1	102	1	strangle	personal	k	No	8.59840444684106	N/A	-1	0.556885245901639	0.0460170664608795	0.886229508196721	1	0	TRUE	0.113770491803279	0	0.13086457524505	8.46753987159601	0.85
0.85	a celebrity	an olympian	50	torture	1	36	1	strangle	impersonal	k	No	9.64601132214141	N/A	-1	0.420575471698113	0.0461294211031207	0.841150943396226	-1	1	FALSE	-0.158849056603774	1	0.914497010713136	8.73151431142828	0.85
0.85	an assassin	a convict	50	torture	1	58	1	unidentified	impersonal	d	Yes	9.09279480812114	N/A	-1	0.578556390977444	0.0423683036665345	0.842887218045113	-1	0	FALSE	-0.157112781954887	0	0.449271976636951	8.64352283148419	0.85
0.95	a billionaire	a celebrity	50	torture	1	15	1	unidentified	personal	k	No	8.17611034223734	N/A	-1	0.536	0.0494399918438418	0.928	1	0	TRUE	0.072	0	-0.639395836410293	8.81550617864763	0.95
0.95	a college student	an astronaut	50	torture	1	107	1	strangle	impersonal	k	No	8.03138533062553	N/A	-1	0.53377868852459	0.0433236038162571	0.93244262295082	1	0	TRUE	0.06755737704918	0	-0.41615647734682	8.44754180797235	0.95
0.95	a homeless adult	a nun	50	torture	1	44	1	unidentified	personal	k	No	8.78905071352105	N/A	-1	0.472969230769231	0.0429675844550938	0.945938461538462	-1	1	FALSE	-0.0540615384615381	1	0.0895333038906194	8.69951740963043	0.95
0.95	a homeless adult	a billionaire	50	torture	1	77	1	unidentified	impersonal	k	No	9.33069786863992	N/A	-1	0.494091666666667	0.045396398378765	0.988183333333333	1	0	TRUE	0.011816666666667	0	0.763167678925623	8.56753018971429	0.95
0.95	an assassin	a thief	50	torture	1	54	1	strangle	personal	k	No	8.67214355141406	N/A	-1	0.494268292682927	0.0435287017682407	0.988536585365854	1	0	TRUE	0.011463414634146	0	0.0126222690309458	8.65952128238311	0.95
0.95	a homeless adult	a judge	50	torture	1	4	1	strangle	personal	d	Yes	9.57713394943608	N/A	-1	0.451047244094488	0.0437782691307995	0.902094488188976	-1	0	FALSE	-0.097905511811024	0	0.717632030816399	8.85950191861968	0.95
0.95	an adult	a college student	50	torture	1	24	1	unidentified	personal	k	No	8.40491994893345	N/A	-1	0.487112068965517	0.0479491034472653	0.974224137931034	1	0	TRUE	0.025775862068966	0	-0.374589715191601	8.77950966412505	0.95
0.95	a police officer	a mentor	50	torture	1	95	1	unidentified	personal	k	No	8.49943646982698	N/A	-1	0.471458015267176	0.0433438039397077	0.942916030534351	1	0	TRUE	0.057083969465649	0	0.00389930915784868	8.49553716066913	0.95
0.95	a thief	a gang member	50	torture	1	21	1	strangle	impersonal	k	No	9.2750038853019	N/A	-1	0.480940677966102	0.045567624747039	0.961881355932203	1	0	TRUE	0.038118644067797	0	0.483495383002657	8.79150850229925	0.95
0.05	a college student	a pedophile	13	torture	2	102	1	strangle	personal	k	Yes	8.09803475617607	N/A	-1	0.961213114754098	0.0176425906742174	0.0775737704918034	1	1	TRUE	0.922426229508197	1	0.220592245827267	7.8774425103488	0.05
0.05	a mentor	a terrorist	13	torture	2	88	1	unidentified	impersonal	k	Yes	7.70706265537047	N/A	-1	0.95297520661157	0.0189202799156536	0.0940495867768594	1	1	TRUE	0.905950413223141	1	-0.17701038581609	7.88407304118656	0.05
0.05	a rapist	a soldier	13	torture	2	92	1	unidentified	personal	d	No	7.61628356158038	N/A	-1	0.0338818897637795	0.0157661317244983	0.0677637795275591	-1	1	FALSE	-0.932236220472441	1	-0.265412079003346	7.88169564058373	0.05
0.05	a college student	a pedophile	13	torture	2	44	1	strangle	impersonal	d	No	8.09285102753838	N/A	-1	0.961213114754098	0.0176425906742174	0.0775737704918034	1	0	TRUE	0.922426229508197	0	0.106763110848334	7.98608791669005	0.05
0.05	a rapist	an astronaut	13	torture	2	78	1	strangle	impersonal	d	No	7.88570539124302	N/A	-1	0.0476384615384615	0.0184543359451891	0.095276923076923	-1	1	FALSE	-0.904723076923077	1	-0.00681381568525996	7.89251920692828	0.05
0.05	a terrorist	an adult	13	torture	2	95	1	unidentified	impersonal	d	No	7.51588908521513	N/A	-1	0.0409230769230769	0.018282671881899	0.0818461538461539	-1	1	FALSE	-0.918153846153846	1	-0.364305585856822	7.88019467107195	0.05
0.05	a rapist	a soldier	13	torture	2	131	1	unidentified	impersonal	d	No	7.52185925220163	N/A	-1	0.0338818897637795	0.0157661317244983	0.0677637795275591	-1	1	FALSE	-0.932236220472441	1	-0.350481542655825	7.87234079485745	0.05
0.05	a rapist	a mentor	13	torture	2	1	1	strangle	personal	d	No	8.93379604393486	N/A	-1	0.950279069767442	0.0195449724178816	0.0994418604651164	-1	1	FALSE	-0.900558139534884	1	0.114154959444098	8.81964108449076	0.05
0.05	a rapist	an orphan	13	torture	2	51	1	strangle	impersonal	d	No	7.25488481007734	N/A	-1	0.0348650793650794	0.0158741101836107	0.0697301587301588	-1	1	FALSE	-0.930269841269841	1	-0.697701439219392	7.95258624929673	0.05
0.05	a terrorist	an astronaut	13	torture	2	13	1	strangle	personal	d	No	8.03495502450216	N/A	-1	0.0457317073170732	0.0179179913546918	0.0914634146341463	-1	1	FALSE	-0.908536585365854	1	-0.362803641398136	8.39775866590029	0.05
0.05	a soldier	a pedophile	13	torture	2	48	1	strangle	personal	k	Yes	7.75491027202143	N/A	-1	0.0253951612903226	0.0142856636459407	0.0507903225806452	1	1	TRUE	0.949209677419355	1	-0.210641470476112	7.96555174249754	0.05
0.05	an adult	a terrorist	13	torture	2	80	1	unidentified	impersonal	k	Yes	7.42595365707754	N/A	-1	0.0409230769230769	0.018282671881899	0.0818461538461539	1	1	TRUE	0.918153846153846	1	-0.464530123388294	7.89048378046583	0.05
0.05	a pedophile	an astronaut	13	torture	2	20	1	unidentified	personal	d	No	7.75362354655975	N/A	-1	0.0383125	0.0167948861566107	0.0766249999999999	-1	1	FALSE	-0.923375	1	-0.491091621164085	8.24471516772383	0.05
0.05	an orphan	a rapist	13	torture	2	61	1	strangle	impersonal	k	Yes	7.60738142563979	N/A	-1	0.0348650793650794	0.0158741101836107	0.0697301587301588	1	1	TRUE	0.930269841269841	1	-0.313488763924537	7.92087018956433	0.05
0.05	an elderly person	a pedophile	13	torture	2	39	1	unidentified	impersonal	k	Yes	7.51534457118044	N/A	-1	0.0328429752066116	0.016647060031823	0.0656859504132231	1	1	TRUE	0.934314049586777	1	-0.502775803346855	8.01812037452729	0.05
0.05	a pedophile	a police officer	13	torture	2	84	1	strangle	personal	d	No	7.38212436573751	N/A	-1	0.0427348484848485	0.01822580995369	0.085469696969697	-1	1	FALSE	-0.914530303030303	1	-0.504840894631492	7.886965260369	0.05
0.15	an assassin	an elderly person	13	torture	2	82	1	unidentified	impersonal	d	No	8.62047154086974	N/A	-1	0.0712727272727273	0.0231500429987852	0.142545454545455	-1	1	FALSE	-0.857454545454545	1	0.7318331624576	7.88863837841214	0.15
0.15	a soldier	a gang member	13	torture	2	70	1	strangle	personal	k	Yes	7.17625453201714	N/A	-1	0.0983361344537815	0.0267793798426612	0.196672268907563	1	1	TRUE	0.803327731092437	1	-0.726729457234697	7.90298398925184	0.15
0.15	a pedophile	a homeless adult	13	torture	2	11	1	strangle	impersonal	d	No	8.83956650365795	N/A	-1	0.924580152671756	0.0228070940929906	0.150839694656488	-1	1	FALSE	-0.849160305343512	1	0.387537392923708	8.45202911073424	0.15
0.15	a rapist	a nun	13	torture	2	105	1	unidentified	impersonal	d	No	7.57660976697304	N/A	-1	0.926565891472868	0.0231368782695567	0.146868217054264	-1	1	FALSE	-0.853131782945736	1	-0.299913247498197	7.87652301447123	0.15
0.15	a thief	an orphan	13	torture	2	66	1	unidentified	impersonal	d	No	7.60787807327851	N/A	-1	0.0788474576271186	0.0245323452626974	0.157694915254237	-1	1	FALSE	-0.842305084745763	1	-0.302093241134306	7.90997131441281	0.15
0.15	a mentor	an assassin	13	torture	2	23	1	strangle	impersonal	k	Yes	8.2409125416889	N/A	-1	0.900732283464567	0.0279379356743691	0.198535433070866	1	1	TRUE	0.801464566929134	1	0.0473291499833977	8.1935833917055	0.15
0.15	a rapist	an olympian	13	torture	2	50	1	unidentified	personal	d	No	7.7698009960039	N/A	-1	0.0517416666666667	0.0204622761786923	0.103483333333333	-1	1	FALSE	-0.896516666666667	1	-0.186897110360151	7.95669810636405	0.15
0.15	a terrorist	a police officer	13	torture	2	6	1	strangle	impersonal	d	No	8.90476584668281	N/A	-1	0.935637795275591	0.0224759664173576	0.128724409448819	-1	1	FALSE	-0.871275590551181	1	0.29133688050794	8.61342896617487	0.15
0.15	an olympian	a terrorist	13	torture	2	150	1	strangle	personal	k	Yes	7.78821155784708	N/A	-1	0.0506371681415929	0.0198943284222663	0.101274336283186	1	1	TRUE	0.898725663716814	1	-0.0831453962975592	7.87135695414463	0.15
0.15	an orphan	an assassin	13	torture	2	161	1	unidentified	personal	k	Yes	7.67415292128168	N/A	-1	0.0619596774193548	0.0219733054731573	0.12391935483871	1	1	TRUE	0.87608064516129	1	-0.196937346558124	7.8710902678398	0.15
0.15	a billionaire	a pedophile	13	torture	2	120	1	strangle	personal	k	Yes	7.8935720735049	N/A	-1	0.911060344827586	0.0267549087908591	0.177879310344828	1	1	TRUE	0.822120689655172	1	0.0200712546680171	7.87350081883689	0.15
0.15	a homeless adult	a terrorist	13	torture	2	138	1	strangle	impersonal	k	Yes	7.68109900153636	N/A	-1	0.910452380952381	0.0250985860540854	0.179095238095238	1	1	TRUE	0.820904761904762	1	-0.190770257935618	7.87186925947198	0.15
0.15	a rapist	a judge	13	torture	2	5	1	unidentified	personal	d	No	8.07184314960916	N/A	-1	0.929198412698413	0.0221520285232864	0.141603174603175	-1	1	FALSE	-0.858396825396825	1	-0.578888269329676	8.65073141893883	0.15
0.15	an elderly person	a thief	13	torture	2	107	1	unidentified	impersonal	k	Yes	7.94271754057379	N/A	-1	0.0895086206896552	0.0267379426677014	0.17901724137931	1	1	TRUE	0.82098275862069	1	0.066736571659348	7.87598096891444	0.15
0.15	a terrorist	a police officer	13	torture	2	33	1	unidentified	personal	d	No	7.96102146588337	N/A	-1	0.935637795275591	0.0224759664173576	0.128724409448819	-1	1	FALSE	-0.871275590551181	1	-0.107483886961294	8.06850535284466	0.15
0.15	an olympian	a rapist	13	torture	2	12	1	unidentified	personal	k	Yes	9.06056344665796	N/A	-1	0.0517416666666667	0.0204622761786923	0.103483333333333	1	1	TRUE	0.896516666666667	1	0.636334293841797	8.42422915281616	0.15
0.15	a thief	a soldier	13	torture	2	46	1	strangle	personal	d	No	7.36960072052641	N/A	-1	0.906613445378151	0.025824002044797	0.186773109243697	-1	1	FALSE	-0.813226890756303	1	-0.605716333134019	7.97531705366043	0.15
0.15	a thief	a soldier	13	torture	2	54	1	unidentified	impersonal	d	No	7.60140233458373	N/A	-1	0.906613445378151	0.025824002044797	0.186773109243697	-1	1	FALSE	-0.813226890756303	1	-0.339991020053594	7.94139335463733	0.15
0.15	a terrorist	a judge	13	torture	2	121	1	unidentified	personal	d	No	7.46049030582534	N/A	-1	0.928949579831933	0.0235531555332125	0.142100840336134	-1	1	FALSE	-0.857899159663866	1	-0.412877380716283	7.87336768654162	0.15
0.25	a celebrity	a terrorist	13	torture	2	71	1	strangle	personal	k	Yes	8.26719218593215	N/A	-1	0.869756756756757	0.0320026196194734	0.260486486486486	1	1	TRUE	0.739513513513514	1	0.365751295862414	7.90144089006973	0.25
0.25	a police officer	a gang member	13	torture	2	154	1	strangle	personal	k	Yes	7.61283103040736	N/A	-1	0.141937007874016	0.029939677073058	0.283874015748032	1	1	TRUE	0.716125984251968	1	-0.25841200230257	7.87124303270993	0.25
0.25	a billionaire	a rapist	13	torture	2	111	1	strangle	personal	k	Yes	7.76726399675731	N/A	-1	0.89190756302521	0.0286354236878874	0.21618487394958	1	1	TRUE	0.78381512605042	1	-0.107779970393545	7.87504396715085	0.25
0.25	a mentor	a thief	13	torture	2	57	1	strangle	impersonal	k	Yes	7.7397944584087	N/A	-1	0.874157024793388	0.0289866802663697	0.251685950413223	1	1	TRUE	0.748314049586777	1	-0.191936256411064	7.93173071481977	0.25
0.25	a thief	an astronaut	13	torture	2	73	1	unidentified	personal	d	No	7.50328963067508	N/A	-1	0.117528455284553	0.028543869533805	0.235056910569106	-1	1	FALSE	-0.764943089430894	1	-0.39528291776908	7.89857254844416	0.25
0.25	a pedophile	a celebrity	13	torture	2	98	1	strangle	impersonal	d	No	7.94165125293056	N/A	-1	0.891396551724138	0.028483929217034	0.217206896551724	-1	1	FALSE	-0.782793103448276	1	0.0627523438764648	7.87889890905409	0.25
0.25	a police officer	an assassin	13	torture	2	52	1	unidentified	personal	k	Yes	7.56992765524265	N/A	-1	0.883398496240602	0.0273431689265252	0.233203007518797	1	1	TRUE	0.766796992481203	1	-0.37874337738285	7.9486710326255	0.25
0.25	a rapist	a congressman	13	torture	2	59	1	unidentified	personal	d	No	7.23633934275434	N/A	-1	0.855307692307692	0.0313378168142828	0.289384615384615	-1	1	FALSE	-0.710615384615385	1	-0.68969521713123	7.92603455988557	0.25
0.25	a judge	an assassin	13	torture	2	4	1	strangle	personal	k	Yes	8.75683981482946	N/A	-1	0.861274193548387	0.0316994440123548	0.277451612903226	1	1	TRUE	0.722548387096774	1	0.0669324404057328	8.68990737442373	0.25
0.25	a billionaire	a rapist	13	torture	2	42	1	unidentified	personal	k	Yes	8.27893600229198	N/A	-1	0.89190756302521	0.0286354236878874	0.21618487394958	1	1	TRUE	0.78381512605042	1	0.280968127199398	7.99796787509258	0.25
0.25	an olympian	a gang member	13	torture	2	162	1	unidentified	impersonal	k	Yes	7.98241634682773	N/A	-1	0.146115044247788	0.033726456015061	0.292230088495575	1	1	TRUE	0.707769911504425	1	0.111343932056537	7.8710724147712	0.25
0.25	a pedophile	a congressman	13	torture	2	123	1	unidentified	impersonal	d	No	8.2529671950008	N/A	-1	0.873739130434783	0.0300818889519302	0.252521739130435	-1	1	FALSE	-0.747478260869565	1	0.379846977260042	7.87312021774076	0.25
0.25	a gang member	an elderly person	13	torture	2	40	1	unidentified	impersonal	d	No	8.06620756800626	N/A	-1	0.111577586206897	0.0281335799456093	0.223155172413793	-1	1	FALSE	-0.776844827586207	1	0.0551364335687481	8.01107113443752	0.25
0.25	an adult	a thief	13	torture	2	116	1	unidentified	personal	k	Yes	7.72577144158795	N/A	-1	0.105282051282051	0.0286804498462789	0.210564102564103	1	1	TRUE	0.789435897435897	1	-0.148332215126902	7.87410365671485	0.25
0.25	a college student	a thief	13	torture	2	89	1	unidentified	impersonal	k	Yes	7.62070508683826	N/A	-1	0.87442735042735	0.0311801202848037	0.251145299145299	1	1	TRUE	0.748854700854701	1	-0.262729229091914	7.88343431593018	0.25
0.35	a terrorist	an addict	13	torture	2	134	1	strangle	personal	d	No	7.58629630715272	N/A	-1	0.153724137931034	0.0335020884210678	0.307448275862069	-1	1	FALSE	-0.692551724137931	1	-0.285822481178212	7.87211878833093	0.35
0.35	a thief	a judge	13	torture	2	113	1	strangle	impersonal	d	No	8.17018565287964	N/A	-1	0.827621848739496	0.0340561759999284	0.344756302521008	-1	1	FALSE	-0.655243697478992	1	0.295545649611911	7.87464000326773	0.35
0.35	a thief	a billionaire	13	torture	2	117	1	unidentified	personal	d	No	7.6231530684769	N/A	-1	0.801189189189189	0.0387930877058685	0.397621621621622	-1	1	FALSE	-0.602378378378378	1	-0.250788626565313	7.87394169504222	0.35
0.35	a thief	a homeless adult	13	torture	2	65	1	strangle	personal	d	No	8.35608503102148	N/A	-1	0.812293650793651	0.0340138088006348	0.375412698412698	-1	1	FALSE	-0.624587301587302	1	0.444142179829743	7.91194285119174	0.35
0.35	a convict	an olympian	13	torture	2	30	1	unidentified	personal	d	No	7.539027055824	N/A	-1	0.189569105691057	0.0360981333958361	0.379138211382114	-1	1	FALSE	-0.620861788617886	1	-0.560801689596317	8.09982874542031	0.35
0.35	a thief	a homeless adult	13	torture	2	63	1	strangle	impersonal	d	No	7.94979721616185	N/A	-1	0.812293650793651	0.0340138088006348	0.375412698412698	-1	1	FALSE	-0.624587301587302	1	0.0336092589319836	7.91618795722987	0.35
0.35	a convict	an adult	13	torture	2	45	1	strangle	impersonal	d	No	8.37885024179449	N/A	-1	0.163779527559055	0.0324434073075244	0.32755905511811	-1	1	FALSE	-0.67244094488189	1	0.398279684320515	7.98057055747398	0.35
0.35	a college student	a convict	13	torture	2	135	1	unidentified	personal	k	Yes	7.84463264446468	N/A	-1	0.810417322834646	0.0339347649336858	0.379165354330709	1	1	TRUE	0.620834645669291	1	-0.0274191040984384	7.87205174856312	0.35
0.35	an assassin	a billionaire	13	torture	2	145	1	unidentified	impersonal	d	No	8.45446636150793	N/A	-1	0.829521367521368	0.0366999445759961	0.340957264957265	-1	1	FALSE	-0.659042735042735	1	0.582931711969801	7.87153464953813	0.35
0.35	a mentor	a convict	13	torture	2	153	1	unidentified	personal	k	Yes	7.51643330291563	N/A	-1	0.158511450381679	0.0320277711300361	0.317022900763359	1	1	TRUE	0.682977099236641	1	-0.354836152089551	7.87126945500518	0.35
0.35	an orphan	an addict	13	torture	2	53	1	strangle	impersonal	k	Yes	8.58727879898293	N/A	-1	0.167077586206897	0.0340002823946035	0.334155172413793	1	1	TRUE	0.665844827586207	1	0.642335746521059	7.94494305246187	0.35
0.35	an addict	a soldier	13	torture	2	130	1	strangle	impersonal	d	No	8.02649693894541	N/A	-1	0.81148717948718	0.0363332669184672	0.377025641025641	-1	1	FALSE	-0.622974358974359	1	0.154074587070506	7.87242235187491	0.35
0.35	an addict	an elderly person	13	torture	2	91	1	strangle	impersonal	d	No	7.81681996576455	N/A	-1	0.179964912280702	0.0371848237841866	0.359929824561404	-1	1	FALSE	-0.640070175438596	1	-0.0654270757107849	7.88224704147534	0.35
0.35	an adult	a convict	13	torture	2	16	1	strangle	personal	k	Yes	8.51418868239594	N/A	-1	0.163779527559055	0.0324434073075244	0.32755905511811	1	1	TRUE	0.67244094488189	1	0.188485383883616	8.32570329851232	0.35
0.35	a congressman	a terrorist	13	torture	2	158	1	unidentified	personal	k	Yes	8.56750600528983	N/A	-1	0.844918181818182	0.0347030985482637	0.310163636363636	1	1	TRUE	0.689836363636364	1	0.696356615858804	7.87114938943102	0.35
0.35	an addict	a terrorist	13	torture	2	152	1	unidentified	personal	k	Yes	7.96067260838812	N/A	-1	0.153724137931034	0.0335020884210678	0.307448275862069	1	1	TRUE	0.692551724137931	1	0.0893754040370842	7.87129720435103	0.35
0.35	a billionaire	an assassin	13	torture	2	3	1	unidentified	impersonal	k	Yes	8.70913499158718	N/A	-1	0.829521367521368	0.0366999445759961	0.340957264957265	1	1	TRUE	0.659042735042735	1	-0.0219159370651667	8.73105092865235	0.35
0.45	an adult	an addict	13	torture	2	74	1	strangle	impersonal	k	Yes	8.24117615049496	N/A	-1	0.218608695652174	0.0385640831832313	0.437217391304348	1	1	TRUE	0.562782608695652	1	0.343935733912414	7.89724041658255	0.45
0.45	a thief	a celebrity	13	torture	2	165	1	unidentified	impersonal	d	No	7.73718007783463	N/A	-1	0.765432432432432	0.0413755093653157	0.469135135135135	-1	1	FALSE	-0.530864864864865	1	-0.133843739061456	7.87102381689609	0.45
0.45	a convict	a judge	13	torture	2	148	1	unidentified	personal	d	No	7.34794382314869	N/A	-1	0.201325581395349	0.0345531512140384	0.402651162790698	-1	1	FALSE	-0.597348837209302	1	-0.523479033334564	7.87142285648325	0.45
0.45	an addict	an astronaut	13	torture	2	167	1	strangle	impersonal	d	No	8.06085575293432	N/A	-1	0.241107438016529	0.0378334440471577	0.482214876033058	-1	1	FALSE	-0.517785123966942	1	0.189860584630263	7.87099516830405	0.45
0.45	a thief	a rapist	13	torture	2	10	1	unidentified	personal	k	Yes	8.37101068123816	N/A	-1	0.230256	0.0376549646177016	0.460512	1	1	TRUE	0.539488	1	-0.110214630635252	8.48122531187341	0.45
0.45	a celebrity	an assassin	13	torture	2	119	1	strangle	impersonal	k	Yes	7.68982866873648	N/A	-1	0.797811965811966	0.0356821925988365	0.404376068376068	1	1	TRUE	0.595623931623932	1	-0.183811968918908	7.87364063765539	0.45
0.55	a celebrity	a soldier	13	torture	2	137	1	unidentified	personal	d	No	7.86326672400957	N/A	-1	0.270929203539823	0.0404238262219043	0.541858407079646	-1	1	FALSE	-0.458141592920354	1	-0.00866040977906124	7.87192713378863	0.55
0.55	an addict	a mentor	13	torture	2	93	1	unidentified	impersonal	d	No	7.69211333959547	N/A	-1	0.74653781512605	0.0407361600189282	0.506924369747899	-1	1	FALSE	-0.493075630252101	1	-0.189057269614847	7.88117060921031	0.55
0.55	an addict	a thief	13	torture	2	76	1	strangle	impersonal	d	No	8.26873183211774	N/A	-1	0.289793103448276	0.0421554866151259	0.579586206896552	1	0	TRUE	0.420413793103448	0	0.373967607158983	7.89476422495875	0.55
0.55	a college student	an addict	13	torture	2	166	1	unidentified	impersonal	k	Yes	7.9728107841214	N/A	-1	0.747678260869565	0.0402676819808396	0.50464347826087	1	1	TRUE	0.49535652173913	1	0.101801642425703	7.8710091416957	0.55
0.55	a nun	a soldier	13	torture	2	128	1	unidentified	impersonal	d	No	8.35561499576018	N/A	-1	0.287650406504065	0.0412569309404372	0.57530081300813	-1	1	FALSE	-0.42469918699187	1	0.483017035602979	7.8725979601572	0.55
0.55	a celebrity	an orphan	13	torture	2	35	1	unidentified	personal	d	No	7.8770178956224	N/A	-1	0.296142857142857	0.0426057980742028	0.592285714285714	-1	1	FALSE	-0.407714285714286	1	-0.173022224061958	8.05004011968436	0.55
0.55	an addict	an olympian	13	torture	2	100	1	strangle	personal	d	No	7.61923341622681	N/A	-1	0.263972972972973	0.040312090485972	0.527945945945946	-1	1	FALSE	-0.472054054054054	1	-0.258901637260805	7.87813505348761	0.55
0.55	an addict	a mentor	13	torture	2	149	1	unidentified	personal	d	No	7.4205789054108	N/A	-1	0.74653781512605	0.0407361600189282	0.506924369747899	-1	1	FALSE	-0.493075630252101	1	-0.450810192693542	7.87138909810434	0.55
0.55	a thief	a terrorist	13	torture	2	36	1	unidentified	personal	k	Yes	8.15075647027555	N/A	-1	0.267127118644068	0.041226199879026	0.534254237288136	1	1	TRUE	0.465745762711864	1	0.109292081322057	8.04146438895349	0.55
0.55	an elderly person	a congressman	13	torture	2	56	1	strangle	personal	k	Yes	7.41276401742656	N/A	-1	0.266703703703704	0.0411379243175607	0.533407407407407	1	1	TRUE	0.466592592592593	1	-0.522031092492364	7.93479510991893	0.55
0.55	an elderly person	a congressman	13	torture	2	18	1	strangle	impersonal	k	Yes	8.43032725839458	N/A	-1	0.266703703703704	0.0411379243175607	0.533407407407407	1	1	TRUE	0.466592592592593	1	0.147100813436904	8.28322644495767	0.55
0.65	a college student	a celebrity	13	torture	2	160	1	unidentified	impersonal	k	Yes	7.57814547241947	N/A	-1	0.345309090909091	0.0439224401758251	0.690618181818182	1	1	TRUE	0.309381818181818	1	-0.2929635451531	7.87110901757257	0.65
0.65	an addict	a homeless adult	13	torture	2	86	1	strangle	personal	d	No	8.28475659319044	N/A	-1	0.664516129032258	0.041885030889668	0.670967741935484	-1	1	FALSE	-0.329032258064516	1	0.399308251034808	7.88544834215563	0.65
0.65	an elderly person	a judge	13	torture	2	163	1	strangle	personal	k	Yes	7.60140233458373	N/A	-1	0.333735042735043	0.0446773279879136	0.667470085470085	1	1	TRUE	0.332529914529915	1	-0.269653080902058	7.87105541548579	0.65
0.65	an elderly person	a judge	13	torture	2	26	1	strangle	personal	k	Yes	7.7336835707759	N/A	-1	0.333735042735043	0.0446773279879136	0.667470085470085	1	1	TRUE	0.332529914529915	1	-0.415758609032972	8.14944217980887	0.65
0.65	a congressman	an adult	13	torture	2	25	1	strangle	impersonal	d	No	7.73280753042202	N/A	-1	0.314082568807339	0.0456033290583103	0.628165137614679	-1	1	FALSE	-0.371834862385321	1	-0.430633527122235	8.16344105754426	0.65
0.65	a pedophile	a gang member	13	torture	2	28	1	strangle	personal	d	No	7.62021477057445	N/A	-1	0.664211382113821	0.0446065924835502	0.671577235772358	-1	1	FALSE	-0.328422764227642	1	-0.50320603343097	8.12342080400543	0.65
0.65	an elderly person	a homeless adult	13	torture	2	159	1	strangle	impersonal	k	Yes	7.69256964806791	N/A	-1	0.317927419354839	0.0421036704340274	0.635854838709677	1	1	TRUE	0.364145161290323	1	-0.178559060936236	7.87112870900414	0.65
0.65	an olympian	a soldier	13	torture	2	156	1	strangle	impersonal	d	No	7.48941208350872	N/A	-1	0.664324561403509	0.0451018367781097	0.671350877192982	-1	1	FALSE	-0.328649122807018	1	-0.381781834944519	7.87119391845324	0.65
0.65	a celebrity	an elderly person	13	torture	2	24	1	unidentified	personal	d	No	7.60787807327851	N/A	-1	0.306889908256881	0.0457267820266825	0.613779816513761	-1	1	FALSE	-0.386220183486239	1	-0.570264950768331	8.17814302404684	0.65
0.65	an orphan	a homeless adult	13	torture	2	67	1	strangle	impersonal	k	Yes	7.90581031265893	N/A	-1	0.30840157480315	0.041915692975954	0.616803149606299	1	1	TRUE	0.383196850393701	1	-0.0022837493254988	7.90809406198443	0.65
0.65	a judge	an orphan	13	torture	2	126	1	unidentified	personal	d	No	8.0702808933939	N/A	-1	0.323033613445378	0.0420214489238273	0.646067226890756	-1	1	FALSE	-0.353932773109244	1	0.197489242249899	7.872791651144	0.65
0.65	a terrorist	a rapist	13	torture	2	68	1	strangle	impersonal	d	No	9.3894902376045	N/A	-1	0.327384	0.0414411620724361	0.654768	1	0	TRUE	0.345232	0	1.48318365263675	7.90630658496775	0.65
0.65	a nun	an orphan	13	torture	2	101	1	strangle	impersonal	d	No	7.27862894232068	N/A	-1	0.31072131147541	0.0423384389985975	0.62144262295082	-1	1	FALSE	-0.37855737704918	1	-0.599151356932388	7.87778029925307	0.65
0.65	a homeless adult	an orphan	13	torture	2	115	1	strangle	impersonal	d	No	8.5991417740634	N/A	-1	0.30840157480315	0.041915692975954	0.616803149606299	-1	1	FALSE	-0.383196850393701	1	0.724868021207215	7.87427375285619	0.65
0.65	a nun	an elderly person	13	torture	2	90	1	unidentified	personal	d	No	8.01035958891978	N/A	-1	0.321791666666667	0.0436448778377553	0.643583333333333	-1	1	FALSE	-0.356416666666667	1	0.127533452634767	7.88282613628502	0.65
0.65	an addict	an assassin	13	torture	2	132	1	strangle	impersonal	k	Yes	8.1164170727942	N/A	-1	0.695537190082645	0.0432380485421139	0.608925619834711	1	1	TRUE	0.391074380165289	1	0.244153934671689	7.87226313812252	0.65
0.65	a gang member	an addict	13	torture	2	37	1	strangle	impersonal	d	No	8.50532301884575	N/A	-1	0.316758620689655	0.0431305910190316	0.63351724137931	-1	1	FALSE	-0.36648275862069	1	0.472024245422112	8.03329877342364	0.65
0.65	an elderly person	a homeless adult	13	torture	2	114	1	unidentified	impersonal	k	Yes	8.1285852003745	N/A	-1	0.317927419354839	0.0421036704340274	0.635854838709677	1	1	TRUE	0.364145161290323	1	0.254132808357411	7.87445239201709	0.65
0.65	an orphan	an olympian	13	torture	2	124	1	strangle	personal	d	No	8.66336930157384	N/A	-1	0.322433628318584	0.0434655627051088	0.644867256637168	1	0	TRUE	0.355132743362832	0	0.790364014729547	7.87300528684429	0.65
0.75	a gang member	a terrorist	13	torture	2	83	1	strangle	impersonal	d	No	7.48099216286952	N/A	-1	0.621059322033898	0.0439655672850916	0.757881355932203	1	0	TRUE	0.242118644067797	0	-0.406789163212687	7.88778132608221	0.75
0.75	a congressman	a nun	13	torture	2	94	1	strangle	impersonal	d	No	7.93343838762749	N/A	-1	0.392754385964912	0.0443798280555076	0.785508771929824	-1	1	FALSE	-0.214491228070176	1	0.0527677013358154	7.88067068629167	0.75
0.75	a police officer	a celebrity	13	torture	2	38	1	unidentified	personal	k	Yes	7.44833386089748	N/A	-1	0.358876033057851	0.0415559572461656	0.717752066115703	1	1	TRUE	0.282247933884297	1	-0.577189799352253	8.02552366024973	0.75
0.75	a celebrity	a police officer	13	torture	2	155	1	strangle	personal	d	No	7.5109777520141	N/A	-1	0.358876033057851	0.0415559572461656	0.717752066115703	-1	1	FALSE	-0.282247933884297	1	-0.360240121987933	7.87121787400203	0.75
0.75	a celebrity	a mentor	13	torture	2	96	1	unidentified	impersonal	d	No	7.4599147662411	N/A	-1	0.352739130434783	0.0430450410601487	0.705478260869565	-1	1	FALSE	-0.294521739130435	1	-0.419826653977633	7.87974142021874	0.75
0.75	a celebrity	an addict	13	torture	2	79	1	strangle	personal	d	No	7.5076900778199	N/A	-1	0.617743119266055	0.0462241766613936	0.76451376146789	1	0	TRUE	0.23548623853211	0	-0.3837864848077	7.8914765626276	0.75
0.75	a celebrity	an astronaut	13	torture	2	7	1	unidentified	personal	d	No	8.06495089174914	N/A	-1	0.393646551724138	0.0469024400715304	0.787293103448276	-1	1	FALSE	-0.212706896551724	1	-0.512959528292402	8.57791042004155	0.75
0.75	a college student	a soldier	13	torture	2	41	1	unidentified	impersonal	d	No	7.69256964806791	N/A	-1	0.37121186440678	0.0447197833520734	0.742423728813559	-1	1	FALSE	-0.257576271186441	1	-0.311789360469529	8.00435900853743	0.75
0.75	a mentor	a soldier	13	torture	2	125	1	unidentified	impersonal	k	Yes	8.02420748577858	N/A	-1	0.367056910569106	0.043529553729685	0.734113821138211	-1	0	FALSE	-0.265886178861789	0	0.151311633516885	7.87289585226169	0.75
0.75	a homeless adult	a police officer	13	torture	2	146	1	unidentified	personal	d	No	8.11939858961229	N/A	-1	0.370433823529412	0.0423215822219775	0.740867647058824	-1	1	FALSE	-0.259132352941176	1	0.247903044706655	7.87149554490564	0.75
0.75	a homeless adult	a police officer	13	torture	2	81	1	unidentified	impersonal	d	No	7.65302041380419	N/A	-1	0.370433823529412	0.0423215822219775	0.740867647058824	-1	1	FALSE	-0.259132352941176	1	-0.236518062093171	7.88953847589736	0.75
0.75	a congressman	a homeless adult	13	torture	2	118	1	unidentified	impersonal	d	No	7.76004068088038	N/A	-1	0.390483050847458	0.0454650179573343	0.780966101694915	-1	1	FALSE	-0.219033898305085	1	-0.113746797945068	7.87378747882545	0.75
0.75	a mentor	a soldier	13	torture	2	99	1	unidentified	personal	k	Yes	8.22577079934873	N/A	-1	0.367056910569106	0.043529553729685	0.734113821138211	-1	0	FALSE	-0.265886178861789	0	0.347263174218491	7.87850762513024	0.75
0.75	a billionaire	an orphan	13	torture	2	14	1	unidentified	impersonal	d	No	8.75447630628417	N/A	-1	0.362955357142857	0.045849382347557	0.725910714285714	-1	1	FALSE	-0.274089285714286	1	0.381922235283893	8.37255407100027	0.75
0.75	a college student	a soldier	13	torture	2	97	1	strangle	personal	d	No	7.35946763825562	N/A	-1	0.37121186440678	0.0447197833520734	0.742423728813559	-1	1	FALSE	-0.257576271186441	1	-0.519842206821354	7.87930984507698	0.75
0.75	a homeless adult	a mentor	13	torture	2	143	1	strangle	personal	d	No	8.47010158388239	N/A	-1	0.367046153846154	0.0408210885758222	0.734092307692308	-1	1	FALSE	-0.265907692307692	1	0.598482734387504	7.87161884949488	0.75
0.75	an adult	a judge	13	torture	2	127	1	unidentified	personal	k	Yes	7.73499619402278	N/A	-1	0.391525423728814	0.0422309766491521	0.783050847457627	1	1	TRUE	0.216949152542373	1	-0.137696239189646	7.87269243321243	0.75
0.75	a judge	an adult	13	torture	2	32	1	unidentified	impersonal	d	No	8.66302363962778	N/A	-1	0.391525423728814	0.0422309766491521	0.783050847457627	-1	1	FALSE	-0.216949152542373	1	0.584584433042288	8.07843920658549	0.75
0.75	an astronaut	an orphan	13	torture	2	47	1	strangle	impersonal	k	Yes	8.3845756668014	N/A	-1	0.354886178861789	0.0433170751441888	0.709772357723577	-1	0	FALSE	-0.290227642276423	0	0.414260879848307	7.97031478695309	0.75
0.75	a homeless adult	a mentor	13	torture	2	110	1	strangle	personal	d	No	8.23827262463303	N/A	-1	0.367046153846154	0.0408210885758222	0.734092307692308	-1	1	FALSE	-0.265907692307692	1	0.363011334576115	7.87526129005691	0.75
0.75	an elderly person	an olympian	13	torture	2	147	1	strangle	impersonal	k	Yes	7.84267147497946	N/A	-1	0.616603603603604	0.0450610501014404	0.766792792792793	1	1	TRUE	0.233207207207207	1	-0.0287868353855449	7.871458310365	0.75
0.75	a celebrity	an addict	13	torture	2	58	1	unidentified	personal	d	No	7.88269220628903	N/A	-1	0.617743119266055	0.0462241766613936	0.76451376146789	1	0	TRUE	0.23548623853211	0	-0.0461206612945517	7.92881286758358	0.75
0.75	an olympian	an elderly person	13	torture	2	2	1	unidentified	impersonal	d	No	8.22389538017882	N/A	-1	0.616603603603604	0.0450610501014404	0.766792792792793	-1	1	FALSE	-0.233207207207207	1	-0.550365523408692	8.77426090358751	0.75
0.85	an astronaut	a judge	13	torture	2	49	1	strangle	personal	k	Yes	7.70345904786717	N/A	-1	0.43033064516129	0.0447092980584951	0.860661290322581	1	1	TRUE	0.139338709677419	1	-0.257557432155806	7.96101648002298	0.85
0.85	a judge	a celebrity	13	torture	2	136	1	unidentified	impersonal	k	Yes	7.65964295456468	N/A	-1	0.419758928571429	0.0477168389036276	0.839517857142857	1	1	TRUE	0.160482142857143	1	-0.212344960258042	7.87198791482272	0.85
0.85	a nun	a college student	13	torture	2	106	1	unidentified	personal	d	No	7.64683139143048	N/A	-1	0.579628099173554	0.0438818601118943	0.840743801652893	-1	1	FALSE	-0.159256198347107	1	-0.229413960977826	7.87624535240831	0.85
0.85	a homeless adult	a college student	13	torture	2	8	1	strangle	impersonal	d	No	8.65643325850774	N/A	-1	0.578496	0.0448600312795968	0.843008	-1	1	FALSE	-0.156992	1	0.112342789325947	8.54409046918179	0.85
0.85	a convict	an assassin	13	torture	2	129	1	unidentified	personal	d	No	7.75448154747038	N/A	-1	0.578556390977444	0.0423683036665345	0.842887218045113	1	0	TRUE	0.157112781954887	0	-0.11802645759482	7.8725080050652	0.85
0.85	a college student	a judge	13	torture	2	77	1	strangle	personal	d	No	7.81116338502528	N/A	-1	0.559423728813559	0.0461732538643046	0.881152542372881	1	0	TRUE	0.118847457627119	0	-0.0824508326511788	7.89361421767646	0.85
0.85	a mentor	an orphan	13	torture	2	55	1	strangle	impersonal	k	Yes	7.81561053203519	N/A	-1	0.408352459016393	0.0455601569876457	0.816704918032787	-1	0	FALSE	-0.183295081967213	0	-0.12240288116134	7.93801341319653	0.85
0.85	a nun	a mentor	13	torture	2	34	1	unidentified	personal	d	No	8.0643219609108	N/A	-1	0.570336	0.0440152751717906	0.859328	-1	1	FALSE	-0.140672	1	0.00527539740119565	8.05904656350961	0.85
0.85	a mentor	a billionaire	13	torture	2	104	1	unidentified	personal	k	Yes	7.42714413340862	N/A	-1	0.4162	0.0457691544167611	0.8324	1	1	TRUE	0.1676	1	-0.449670488606118	7.87681462201473	0.85
0.85	an addict	a congressman	13	torture	2	109	1	unidentified	impersonal	d	No	7.44249272279444	N/A	-1	0.569805555555556	0.0469657224106123	0.860388888888889	-1	1	FALSE	-0.139611111111111	1	-0.432996805135935	7.87548952793038	0.85
0.85	an orphan	a college student	13	torture	2	31	1	unidentified	personal	k	Yes	8.35279013512463	N/A	-1	0.411478632478632	0.0456614219383988	0.822957264957265	1	1	TRUE	0.177042735042735	1	0.263918150447934	8.08887198467669	0.85
0.85	a police officer	an elderly person	13	torture	2	17	1	strangle	impersonal	k	Yes	8.61685751452918	N/A	-1	0.41612	0.0442128077865721	0.83224	-1	0	FALSE	-0.16776	0	0.312912923632489	8.30394459089669	0.85
0.85	a billionaire	a college student	13	torture	2	157	1	unidentified	personal	d	No	8.14583961293684	N/A	-1	0.410381818181818	0.0476239394617643	0.820763636363636	-1	1	FALSE	-0.179236363636364	1	0.274668504411687	7.87117110852515	0.85
0.85	a mentor	an olympian	13	torture	2	108	1	strangle	personal	k	Yes	7.59940133341582	N/A	-1	0.558853448275862	0.0462987337766902	0.882293103448276	1	1	TRUE	0.117706896551724	1	-0.276327895555863	7.87572922897168	0.85
0.85	a college student	an orphan	13	torture	2	142	1	strangle	personal	d	No	8.04334217044161	N/A	-1	0.411478632478632	0.0456614219383988	0.822957264957265	-1	1	FALSE	-0.177042735042735	1	0.171678023384106	7.8716641470575	0.85
0.85	a judge	a celebrity	13	torture	2	140	1	unidentified	impersonal	k	Yes	7.79110951061003	N/A	-1	0.419758928571429	0.0477168389036276	0.839517857142857	1	1	TRUE	0.160482142857143	1	-0.0806521709995263	7.87176168160955	0.85
0.95	an adult	a mentor	13	torture	2	133	1	strangle	personal	d	No	7.83597458172157	N/A	-1	0.480545454545455	0.0466048911489246	0.961090909090909	1	0	TRUE	0.038909090909091	0	-0.0362146134262087	7.87218919514777	0.95
0.95	a billionaire	a homeless adult	13	torture	2	69	1	unidentified	personal	k	Yes	8.5422759717837	N/A	-1	0.494091666666667	0.045396398378765	0.988183333333333	-1	0	FALSE	-0.011816666666667	0	0.637671381729826	7.90460459005388	0.95
0.95	an olympian	an adult	13	torture	2	164	1	strangle	personal	d	No	8.29029259122431	N/A	-1	0.538241071428571	0.0481381500213955	0.923517857142857	-1	1	FALSE	-0.0764821428571431	1	0.419253362071006	7.87103922915331	0.95
0.95	a homeless adult	an olympian	13	torture	2	22	1	strangle	impersonal	d	No	8.86488793377419	N/A	-1	0.455826446280992	0.0446986183182352	0.911652892561983	-1	1	FALSE	-0.088347107438017	1	0.655088687312597	8.20979924646159	0.95
0.95	a judge	a nun	13	torture	2	9	1	strangle	impersonal	d	No	8.55487425838393	N/A	-1	0.481723577235772	0.045062377150327	0.963447154471545	-1	1	FALSE	-0.0365528455284549	1	0.042986376319929	8.511887882064	0.95
0.95	a police officer	an adult	13	torture	2	87	1	unidentified	personal	k	Yes	8.45254799792271	N/A	-1	0.484629921259842	0.0448488192419571	0.969259842519685	-1	0	FALSE	-0.030740157480315	0	0.567804151725821	7.88474384619688	0.95
0.95	a police officer	an astronaut	13	torture	2	29	1	strangle	personal	d	No	8.37355374121463	N/A	-1	0.531371212121212	0.0439202738766455	0.937257575757576	1	0	TRUE	0.062742424242424	0	0.262217935551741	8.11133580566289	0.95
0.95	a convict	a gang member	13	torture	2	64	1	strangle	personal	d	No	8.58951385299586	N/A	-1	0.5054140625	0.042996468360859	0.989171875	1	0	TRUE	0.010828125	0	0.675500445275935	7.91401340771993	0.95
0.95	a celebrity	a congressman	13	torture	2	85	1	strangle	personal	d	No	8.21338173703457	N/A	-1	0.520631067961165	0.050282638048839	0.95873786407767	1	0	TRUE	0.04126213592233	0	0.327193515855611	7.88618822117896	0.95
0.95	a thief	an assassin	13	torture	2	75	1	unidentified	impersonal	k	Yes	8.06557942728209	N/A	-1	0.494268292682927	0.0435287017682407	0.988536585365854	-1	0	FALSE	-0.011463414634146	0	0.169607436325117	7.89597199095697	0.95
0.95	a homeless adult	a billionaire	13	torture	2	144	1	unidentified	personal	d	No	7.80220931624712	N/A	-1	0.494091666666667	0.045396398378765	0.988183333333333	1	0	TRUE	0.011816666666667	0	-0.069366401940079	7.8715757181872	0.95
0.95	a college student	a mentor	13	torture	2	72	1	unidentified	impersonal	d	No	7.39203156751459	N/A	-1	0.479666666666667	0.0456956025027364	0.959333333333333	-1	1	FALSE	-0.040666666666667	1	-0.507940018650787	7.89997158616538	0.95
0.95	an olympian	a judge	13	torture	2	103	1	strangle	impersonal	d	No	8.28172399041139	N/A	-1	0.462929824561404	0.0478586480340864	0.925859649122807	1	0	TRUE	0.074140350877193	0	0.40460311496567	7.87712087544572	0.95
0.95	a mentor	a police officer	13	torture	2	60	1	strangle	personal	k	Yes	8.20958048347558	N/A	-1	0.471458015267176	0.0433438039397077	0.942916030534351	-1	0	FALSE	-0.057083969465649	0	0.286191364917106	7.92338911855847	0.95
0.95	an olympian	a homeless adult	13	torture	2	139	1	strangle	personal	d	No	7.72444664563354	N/A	-1	0.455826446280992	0.0446986183182352	0.911652892561983	1	0	TRUE	0.088347107438017	0	-0.147367507231936	7.87181415286547	0.95
0.95	a thief	a convict	13	torture	2	151	1	strangle	personal	d	No	8.22737550683403	N/A	-1	0.5328359375	0.0453215538129195	0.934328125	-1	1	FALSE	-0.065671875	1	0.356049159435904	7.87132634739813	0.95
0.95	a nun	an olympian	13	torture	2	122	1	unidentified	impersonal	d	No	8.69047400355804	N/A	-1	0.451598290598291	0.0471287010162707	0.903196581196581	-1	1	FALSE	-0.096803418803419	1	0.817233082556508	7.87324092100153	0.95
0.95	a gang member	a thief	13	torture	2	19	1	unidentified	impersonal	d	No	8.91771275713139	N/A	-1	0.480940677966102	0.045567624747039	0.961881355932203	-1	1	FALSE	-0.038118644067797	1	0.65421365897819	8.2634990981532	0.95
0.95	an astronaut	a college student	13	torture	2	62	1	strangle	impersonal	k	Yes	8.02551638648901	N/A	-1	0.53377868852459	0.0433236038162571	0.93244262295082	-1	0	FALSE	-0.06755737704918	0	0.1070446637561	7.91847172273291	0.95
0.95	an astronaut	a billionaire	13	torture	2	112	1	strangle	impersonal	k	Yes	8.4448375292241	N/A	-1	0.456103448275862	0.0459782540993934	0.912206896551724	1	1	TRUE	0.087793103448276	1	0.570000491995886	7.87483703722821	0.95
0.95	an olympian	a billionaire	13	torture	2	141	1	unidentified	personal	d	No	8.46926265765869	N/A	-1	0.48188679245283	0.0486981152601432	0.96377358490566	1	0	TRUE	0.03622641509434	0	0.597550937984233	7.87171171967445	0.95
0.95	an olympian	a nun	13	torture	2	15	1	strangle	impersonal	k	Yes	9.19917830726999	N/A	-1	0.451598290598291	0.0471287010162707	0.903196581196581	1	1	TRUE	0.096803418803419	1	0.850623477617008	8.34855482965298	0.95
0.95	an olympian	a judge	13	torture	2	27	1	strangle	personal	d	No	8.1101268019411	N/A	-1	0.462929824561404	0.0478586480340864	0.925859649122807	1	0	TRUE	0.074140350877193	0	-0.0259859652469654	8.13611276718806	0.95
0.05	a college student	a pedophile	70	torture	1	95	1	strangle	impersonal	d	Yes	8.65834547117212	N/A	-1	0.961213114754098	0.0176425906742174	0.0775737704918034	1	1	TRUE	0.922426229508197	1	-0.141430686056773	8.79977615722889	0.05
0.05	a pedophile	an astronaut	70	torture	1	44	1	strangle	impersonal	k	No	8.47824444127766	N/A	-1	0.0383125	0.0167948861566107	0.0766249999999999	-1	1	FALSE	-0.923375	1	-0.408162657910127	8.88640709918779	0.05
0.05	a rapist	an astronaut	70	torture	1	13	1	strangle	impersonal	k	No	8.78615105486974	N/A	-1	0.0476384615384615	0.0184543359451891	0.095276923076923	-1	1	FALSE	-0.904723076923077	1	-0.152914067861711	8.93906512273145	0.05
0.05	an astronaut	a rapist	70	torture	1	74	1	strangle	personal	d	Yes	9.20903952624314	N/A	-1	0.0476384615384615	0.0184543359451891	0.095276923076923	1	1	TRUE	0.904723076923077	1	0.373591804678241	8.83544772156489	0.05
0.05	an elderly person	a rapist	70	torture	1	93	1	strangle	personal	d	Yes	8.74289347151214	N/A	-1	0.0392926829268293	0.0180077483800635	0.0785853658536585	1	1	TRUE	0.921414634146342	1	-0.060279977558257	8.80317344907039	0.05
0.05	an elderly person	a rapist	70	torture	1	58	1	strangle	impersonal	d	Yes	8.8065738205036	N/A	-1	0.0392926829268293	0.0180077483800635	0.0785853658536585	1	1	TRUE	0.921414634146342	1	-0.0560522357935061	8.86262605629711	0.05
0.05	a college student	a terrorist	70	torture	1	60	1	unidentified	impersonal	d	Yes	8.49535649680706	N/A	-1	0.954008547008547	0.0198968379250805	0.091982905982906	1	1	TRUE	0.908017094017094	1	-0.363872267648517	8.85922876445558	0.05
0.05	a police officer	a pedophile	70	torture	1	66	1	unidentified	impersonal	d	Yes	8.79239774235691	N/A	-1	0.0427348484848485	0.01822580995369	0.085469696969697	1	1	TRUE	0.914530303030303	1	-0.056639146574094	8.849036888931	0.05
0.15	an elderly person	an assassin	70	torture	1	104	1	unidentified	personal	d	Yes	8.95763926841965	N/A	-1	0.0712727272727273	0.0231500429987852	0.142545454545455	1	1	TRUE	0.857454545454545	1	0.17315092447765	8.784488343942	0.15
0.15	an olympian	an assassin	70	torture	1	28	1	strangle	personal	d	Yes	8.47303229563047	N/A	-1	0.0995338983050847	0.0275945757922735	0.199067796610169	1	1	TRUE	0.800932203389831	1	-0.440553138289534	8.91358543392	0.15
0.15	a college student	a rapist	70	torture	1	51	1	unidentified	impersonal	d	Yes	8.96251983294953	N/A	-1	0.949314516129032	0.0189770116563248	0.101370967741935	1	1	TRUE	0.898629032258065	1	0.0880032552070839	8.87451657774245	0.15
0.15	an assassin	an astronaut	70	torture	1	98	1	unidentified	personal	k	No	8.54383512236266	N/A	-1	0.0898828125	0.0251099939948124	0.179765625	-1	1	FALSE	-0.820234375	1	-0.250845097103919	8.79468021946658	0.15
0.15	an olympian	a rapist	70	torture	1	91	1	strangle	personal	d	Yes	8.4595640785796	N/A	-1	0.0517416666666667	0.0204622761786923	0.103483333333333	1	1	TRUE	0.896516666666667	1	-0.347006662332318	8.80657074091192	0.15
0.15	an assassin	an orphan	70	torture	1	24	1	unidentified	personal	k	No	8.78691493849102	N/A	-1	0.0619596774193548	0.0219733054731573	0.12391935483871	-1	1	FALSE	-0.87608064516129	1	-0.13346507911203	8.92038001760305	0.15
0.15	an orphan	an assassin	70	torture	1	30	1	unidentified	impersonal	d	Yes	9.17585244151751	N/A	-1	0.0619596774193548	0.0219733054731573	0.12391935483871	1	1	TRUE	0.87608064516129	1	0.265664299439034	8.91018814207847	0.15
0.15	a terrorist	an olympian	70	torture	1	67	1	unidentified	impersonal	k	No	8.27486682068525	N/A	-1	0.0506371681415929	0.0198943284222663	0.101274336283186	-1	1	FALSE	-0.898725663716814	1	-0.572471422324982	8.84733824301024	0.15
0.15	a terrorist	an olympian	70	torture	1	7	1	strangle	personal	k	No	9.17988116449147	N/A	-1	0.0506371681415929	0.0198943284222663	0.101274336283186	-1	1	FALSE	-0.898725663716814	1	0.230624166235446	8.94925699825603	0.15
0.25	a billionaire	a terrorist	70	torture	1	54	1	strangle	personal	d	Yes	8.67982211486446	N/A	-1	0.894315315315315	0.0286633224386688	0.211369369369369	1	1	TRUE	0.788630630630631	1	-0.189598525115703	8.86942063998016	0.25
0.25	a nun	an assassin	70	torture	1	107	1	strangle	impersonal	d	Yes	8.34021732094704	N/A	-1	0.856574803149606	0.0288044337409113	0.286850393700787	1	1	TRUE	0.713149606299213	1	-0.439175085232673	8.77939240617971	0.25
0.25	a gang member	an astronaut	70	torture	1	79	1	strangle	personal	k	No	8.19035440376326	N/A	-1	0.132577235772358	0.030749614149	0.265154471544715	-1	1	FALSE	-0.734845528455285	1	-0.636600088197816	8.82695449196108	0.25
0.25	a convict	a soldier	70	torture	1	29	1	strangle	personal	k	No	8.71719093322313	N/A	-1	0.124821705426357	0.0296872529638241	0.249643410852713	-1	1	FALSE	-0.750356589147287	1	-0.194695854776104	8.91188678799924	0.25
0.25	a pedophile	an addict	70	torture	1	78	1	strangle	impersonal	k	No	9.16868469670735	N/A	-1	0.118520661157025	0.0304063224915403	0.23704132231405	-1	1	FALSE	-0.76295867768595	1	0.340031558825509	8.82865313788184	0.25
0.25	a gang member	a police officer	70	torture	1	52	1	strangle	impersonal	k	No	8.87961160998204	N/A	-1	0.141937007874016	0.029939677073058	0.283874015748032	-1	1	FALSE	-0.716125984251968	1	0.00679367816035041	8.87281793182168	0.25
0.25	a thief	an adult	70	torture	1	55	1	strangle	personal	k	No	8.70400465348304	N/A	-1	0.105282051282051	0.0286804498462789	0.210564102564103	-1	1	FALSE	-0.789435897435897	1	-0.16371734057635	8.86772199405939	0.25
0.25	an olympian	a thief	70	torture	1	84	1	strangle	impersonal	k	No	9.48562086171022	N/A	-1	0.130849557522124	0.0315607070630143	0.261699115044248	1	0	TRUE	0.738300884955752	0	0.667159599352958	8.81846126235726	0.25
0.25	a gang member	an orphan	70	torture	1	94	1	unidentified	personal	k	No	9.26558584620216	N/A	-1	0.101254237288136	0.0277651098253917	0.202508474576271	-1	1	FALSE	-0.797491525423729	1	0.46411104305253	8.80147480314963	0.25
0.25	a billionaire	a terrorist	70	torture	1	19	1	strangle	impersonal	d	Yes	9.19796410090813	N/A	-1	0.894315315315315	0.0286633224386688	0.211369369369369	1	1	TRUE	0.788630630630631	1	0.269090853701256	8.92887324720687	0.25
0.35	a billionaire	an assassin	70	torture	1	43	1	unidentified	personal	d	Yes	8.76405326934776	N/A	-1	0.829521367521368	0.0366999445759961	0.340957264957265	1	1	TRUE	0.659042735042735	1	-0.124052475760791	8.88810574510855	0.35
0.35	a mentor	a convict	70	torture	1	92	1	strangle	impersonal	d	Yes	8.80477525886769	N/A	-1	0.158511450381679	0.0320277711300361	0.317022900763359	1	1	TRUE	0.682977099236641	1	-9.68361234708875e-05	8.80487209499116	0.35
0.35	a gang member	a homeless adult	70	torture	1	88	1	strangle	impersonal	k	No	8.72583205652757	N/A	-1	0.160920634920635	0.0318311457321075	0.32184126984127	-1	1	FALSE	-0.67815873015873	1	-0.0858346221466441	8.81166667867421	0.35
0.35	a gang member	a judge	70	torture	1	34	1	strangle	personal	k	No	8.96686655418872	N/A	-1	0.156151260504202	0.0322912672467752	0.312302521008403	-1	1	FALSE	-0.687697478991597	1	0.0634729957933004	8.90339355839542	0.35
0.35	an orphan	an addict	70	torture	1	9	1	unidentified	impersonal	d	Yes	8.86007342433278	N/A	-1	0.167077586206897	0.0340002823946035	0.334155172413793	1	1	TRUE	0.665844827586207	1	-0.0857862820817223	8.9458597064145	0.35
0.45	a congressman	a soldier	70	torture	1	68	1	strangle	impersonal	k	No	8.93721845085573	N/A	-1	0.234396396396396	0.0407064593659514	0.468792792792793	-1	1	FALSE	-0.531207207207207	1	0.0915788537662575	8.84563959708947	0.45
0.45	a billionaire	a gang member	70	torture	1	14	1	unidentified	impersonal	k	No	9.37067191087852	N/A	-1	0.777558558558559	0.0391994927445522	0.444882882882883	1	0	TRUE	0.555117117117117	0	0.433305434067836	8.93736647681069	0.45
0.45	an assassin	a congressman	70	torture	1	5	1	unidentified	impersonal	k	No	8.72013403541293	N/A	-1	0.767817391304348	0.0394308863049614	0.464365217391304	-1	1	FALSE	-0.535634782608696	1	-0.232520254684628	8.95265429009756	0.45
0.45	an assassin	a celebrity	70	torture	1	87	1	strangle	impersonal	k	No	8.94988428577799	N/A	-1	0.797811965811966	0.0356821925988365	0.404376068376068	-1	1	FALSE	-0.595623931623932	1	0.136518961183021	8.81336532459497	0.45
0.45	an assassin	a celebrity	70	torture	1	83	1	strangle	personal	k	No	9.0864763847538	N/A	-1	0.797811965811966	0.0356821925988365	0.404376068376068	-1	1	FALSE	-0.595623931623932	1	0.266316476475771	8.82015990827803	0.45
0.45	a convict	a homeless adult	70	torture	1	102	1	unidentified	personal	k	No	8.50370260123374	N/A	-1	0.209544117647059	0.0346042756049914	0.419088235294118	-1	1	FALSE	-0.580911764705882	1	-0.284183034549786	8.78788563578352	0.45
0.55	an addict	a college student	70	torture	1	10	1	strangle	impersonal	k	No	8.93971205409023	N/A	-1	0.747678260869565	0.0402676819808396	0.50464347826087	-1	1	FALSE	-0.49535652173913	1	-0.00444900640351017	8.94416106049374	0.55
0.55	an addict	a police officer	70	torture	1	17	1	strangle	personal	k	No	8.90340751993226	N/A	-1	0.734712	0.0395668876030778	0.530576	-1	1	FALSE	-0.469424	1	-0.0288630191161331	8.9322705390484	0.55
0.55	a congressman	a thief	70	torture	1	69	1	strangle	impersonal	k	No	8.89658807179122	N/A	-1	0.730127272727273	0.0437295808713659	0.539745454545455	1	0	TRUE	0.460254545454545	0	0.0526471206225074	8.84394095116871	0.55
0.55	a soldier	a homeless adult	70	torture	1	39	1	unidentified	personal	k	No	8.56312212330464	N/A	-1	0.2772578125	0.0409014693302939	0.554515625	1	0	TRUE	0.445484375	0	-0.331778205486969	8.89490032879161	0.55
0.55	a thief	a terrorist	70	torture	1	2	1	unidentified	impersonal	d	Yes	9.30592324186991	N/A	-1	0.267127118644068	0.041226199879026	0.534254237288136	1	1	TRUE	0.465745762711864	1	0.348173014010067	8.95775022785985	0.55
0.55	a rapist	an assassin	70	torture	1	57	1	strangle	impersonal	k	No	9.26084335414929	N/A	-1	0.268763358778626	0.038158566577316	0.537526717557252	-1	1	FALSE	-0.462473282442748	1	0.39651865193142	8.86432470221787	0.55
0.55	an addict	a thief	70	torture	1	90	1	strangle	personal	k	No	8.55487425838393	N/A	-1	0.289793103448276	0.0421554866151259	0.579586206896552	1	0	TRUE	0.420413793103448	0	-0.253395128448757	8.80826938683268	0.55
0.55	a congressman	an elderly person	70	torture	1	77	1	unidentified	personal	k	No	8.62927109482159	N/A	-1	0.266703703703704	0.0411379243175607	0.533407407407407	-1	1	FALSE	-0.466592592592593	1	-0.201080688981017	8.83035178380261	0.55
0.55	a congressman	a gang member	70	torture	1	36	1	unidentified	impersonal	k	No	8.70151275087287	N/A	-1	0.707463636363636	0.0443229412173818	0.585072727272727	1	0	TRUE	0.414927272727273	0	-0.198483515681031	8.8999962665539	0.55
0.55	a billionaire	a convict	70	torture	1	85	1	unidentified	impersonal	d	Yes	9.08783369748339	N/A	-1	0.735190082644628	0.0412156533418797	0.529619834710744	1	1	TRUE	0.470380165289256	1	0.271071081046887	8.8167626164365	0.55
0.55	a soldier	a judge	70	torture	1	106	1	strangle	personal	k	No	9.22424327714517	N/A	-1	0.293983333333333	0.0429658288799393	0.587966666666667	1	0	TRUE	0.412033333333333	0	0.443152225044702	8.78109105210047	0.55
0.65	a terrorist	a convict	70	torture	1	56	1	unidentified	impersonal	d	Yes	9.12161844191538	N/A	-1	0.6673125	0.0424776671177487	0.665375	-1	0	FALSE	-0.334625	0	0.255595093776747	8.86602334813863	0.65
0.65	an addict	a judge	70	torture	1	48	1	unidentified	impersonal	k	No	8.54655780004614	N/A	-1	0.670290598290598	0.0430650604440267	0.659418803418803	-1	1	FALSE	-0.340581196581197	1	-0.333054715458596	8.87961251550474	0.65
0.65	a terrorist	a pedophile	70	torture	1	50	1	unidentified	personal	d	Yes	8.92292493064183	N/A	-1	0.304528455284553	0.0402275844667329	0.609056910569106	1	1	TRUE	0.390943089430894	1	0.0467097069786209	8.87621522366321	0.65
0.65	a terrorist	an assassin	70	torture	1	71	1	unidentified	impersonal	k	No	9.41564576516051	N/A	-1	0.304105691056911	0.0401970001965495	0.608211382113821	-1	1	FALSE	-0.391788617886179	1	0.575102105833328	8.84054365932718	0.65
0.65	a homeless adult	an addict	70	torture	1	65	1	strangle	personal	d	Yes	8.6429443967218	N/A	-1	0.664516129032258	0.041885030889668	0.670967741935484	1	1	TRUE	0.329032258064516	1	-0.207791138129965	8.85073553485176	0.65
0.65	an elderly person	a celebrity	70	torture	1	11	1	unidentified	impersonal	d	Yes	8.67351294567119	N/A	-1	0.306889908256881	0.0457267820266825	0.613779816513761	1	1	TRUE	0.386220183486239	1	-0.268949468901785	8.94246241457298	0.65
0.65	a terrorist	a pedophile	70	torture	1	33	1	strangle	impersonal	d	Yes	9.42649958951595	N/A	-1	0.304528455284553	0.0402275844667329	0.609056910569106	1	1	TRUE	0.390943089430894	1	0.521407385199763	8.90509220431619	0.65
0.65	a convict	a congressman	70	torture	1	76	1	unidentified	personal	k	No	9.4248063820967	N/A	-1	0.65695	0.0442488532797419	0.6861	-1	1	FALSE	-0.3139	1	0.592755952373337	8.83205042972337	0.65
0.65	a rapist	a terrorist	70	torture	1	27	1	unidentified	personal	k	No	9.09009179938001	N/A	-1	0.327384	0.0414411620724361	0.654768	-1	1	FALSE	-0.345232	1	0.174807719539242	8.91528407984076	0.65
0.65	a celebrity	a college student	70	torture	1	42	1	strangle	personal	k	No	8.75872660784204	N/A	-1	0.345309090909091	0.0439224401758251	0.690618181818182	-1	1	FALSE	-0.309381818181818	1	-0.13107778318728	8.88980439102932	0.65
0.65	an orphan	a judge	70	torture	1	70	1	strangle	impersonal	d	Yes	8.1797604936999	N/A	-1	0.323033613445378	0.0420214489238273	0.646067226890756	1	1	TRUE	0.353932773109244	1	-0.662481811548047	8.84224230524795	0.65
0.65	a billionaire	a soldier	70	torture	1	20	1	unidentified	personal	k	No	9.61773694693409	N/A	-1	0.33312389380531	0.0441631539761036	0.666247787610619	-1	1	FALSE	-0.333752212389381	1	0.690562345647987	8.92717460128611	0.65
0.75	a nun	a police officer	70	torture	1	100	1	unidentified	personal	k	No	9.38016753118845	N/A	-1	0.379908396946565	0.0422025858989117	0.75981679389313	-1	1	FALSE	-0.24018320610687	1	0.588884603563397	8.79128292762505	0.75
0.75	a college student	a soldier	70	torture	1	47	1	unidentified	personal	k	No	8.72485755588199	N/A	-1	0.37121186440678	0.0447197833520734	0.742423728813559	-1	1	FALSE	-0.257576271186441	1	-0.156453605543513	8.8813111614255	0.75
0.75	a congressman	a homeless adult	70	torture	1	62	1	strangle	personal	k	No	9.05975001334368	N/A	-1	0.390483050847458	0.0454650179573343	0.780966101694915	-1	1	FALSE	-0.219033898305085	1	0.203918540729628	8.85583147261405	0.75
0.75	a gang member	a rapist	70	torture	1	16	1	unidentified	personal	d	Yes	8.7662383802531	N/A	-1	0.643832	0.0417388297141392	0.712336	1	1	TRUE	0.287664	1	-0.167730804716061	8.93396918496916	0.75
0.75	a billionaire	an orphan	70	torture	1	86	1	unidentified	personal	k	No	8.88571765171212	N/A	-1	0.362955357142857	0.045849382347557	0.725910714285714	-1	1	FALSE	-0.274089285714286	1	0.0706536811963827	8.81506397051574	0.75
0.75	a celebrity	an adult	70	torture	1	72	1	strangle	impersonal	k	No	8.21066803116298	N/A	-1	0.361099099099099	0.0450633262870011	0.722198198198198	-1	1	FALSE	-0.277801801801802	1	-0.628176982243444	8.83884501340642	0.75
0.75	a celebrity	an adult	70	torture	1	99	1	strangle	personal	k	No	8.36683530982767	N/A	-1	0.361099099099099	0.0450633262870011	0.722198198198198	-1	1	FALSE	-0.277801801801802	1	-0.42614626371814	8.79298157354581	0.75
0.75	an astronaut	an orphan	70	torture	1	59	1	strangle	impersonal	k	No	8.78094111357239	N/A	-1	0.354886178861789	0.0433170751441888	0.709772357723577	-1	1	FALSE	-0.290227642276423	1	-0.079986296803955	8.86092741037634	0.75
0.75	an adult	a nun	70	torture	1	97	1	strangle	impersonal	d	Yes	9.55343349919151	N/A	-1	0.387950413223141	0.0423644722438221	0.775900826446281	1	1	TRUE	0.224099173553719	1	0.757054633804171	8.79637886538734	0.75
0.75	an elderly person	a billionaire	70	torture	1	35	1	strangle	impersonal	d	Yes	8.6522484224091	N/A	-1	0.365798165137615	0.0452694092575148	0.731596330275229	1	1	TRUE	0.268403669724771	1	-0.249446490065558	8.90169491247466	0.75
0.75	a celebrity	an addict	70	torture	1	18	1	strangle	impersonal	k	No	8.72192834304709	N/A	-1	0.617743119266055	0.0462241766613936	0.76451376146789	1	0	TRUE	0.23548623853211	0	-0.208643550080543	8.93057189312763	0.75
0.85	a congressman	a billionaire	70	torture	1	105	1	unidentified	personal	k	No	8.77369414638444	N/A	-1	0.576893203883495	0.0489141042250305	0.84621359223301	-1	1	FALSE	-0.15378640776699	1	-0.00909555163679185	8.78278969802123	0.85
0.85	a billionaire	a mentor	70	torture	1	89	1	strangle	personal	k	No	8.67573421954479	N/A	-1	0.4162	0.0457691544167611	0.8324	-1	1	FALSE	-0.1676	1	-0.134233813208658	8.80996803275345	0.85
0.85	an elderly person	a mentor	70	torture	1	101	1	strangle	personal	d	Yes	8.73456008995299	N/A	-1	0.410546218487395	0.0455578192041821	0.82109243697479	1	1	TRUE	0.17890756302521	1	-0.0550241917512951	8.78958428170429	0.85
0.85	a college student	an elderly person	70	torture	1	26	1	unidentified	personal	k	No	8.39705739017626	N/A	-1	0.413721739130435	0.0448737329936161	0.82744347826087	-1	1	FALSE	-0.17255652173913	1	-0.519925335585272	8.91698272576153	0.85
0.85	a mentor	a nun	70	torture	1	49	1	strangle	personal	d	Yes	8.9182485910357	N/A	-1	0.570336	0.0440152751717906	0.859328	1	1	TRUE	0.140672	1	0.0403347214517279	8.87791386958397	0.85
0.85	a soldier	an adult	70	torture	1	23	1	strangle	personal	k	No	8.64047220757641	N/A	-1	0.59055462184874	0.044721474934607	0.818890756302521	1	0	TRUE	0.181109243697479	0	-0.281606455947409	8.92207866352382	0.85
0.95	a billionaire	an olympian	70	torture	1	40	1	strangle	personal	k	No	8.44677072711969	N/A	-1	0.48188679245283	0.0486981152601432	0.96377358490566	-1	1	FALSE	-0.03622641509434	1	-0.446430955751152	8.89320168287084	0.95
0.95	a mentor	a college student	70	torture	1	3	1	unidentified	impersonal	d	Yes	9.37322423487766	N/A	-1	0.479666666666667	0.0456956025027364	0.959333333333333	1	1	TRUE	0.040666666666667	1	0.417172652938581	8.95605158193908	0.95
0.95	a mentor	a college student	70	torture	1	12	1	unidentified	impersonal	d	Yes	9.01103541014182	N/A	-1	0.479666666666667	0.0456956025027364	0.959333333333333	1	1	TRUE	0.040666666666667	1	0.0702716414896023	8.94076376865221	0.95
0.95	an astronaut	a college student	70	torture	1	64	1	unidentified	impersonal	k	No	8.77508593505727	N/A	-1	0.53377868852459	0.0433236038162571	0.93244262295082	-1	1	FALSE	-0.06755737704918	1	-0.0773482457152603	8.85243418077253	0.95
0.95	a nun	a billionaire	70	torture	1	6	1	unidentified	impersonal	d	Yes	8.92145757894788	N/A	-1	0.50144347826087	0.0469497544202379	0.997113043478261	-1	0	FALSE	-0.00288695652173898	0	-0.0294980652289087	8.95095564417679	0.95
0.95	a police officer	an adult	70	torture	1	37	1	strangle	personal	k	No	9.05660627203414	N/A	-1	0.484629921259842	0.0448488192419571	0.969259842519685	-1	1	FALSE	-0.030740157480315	1	0.158308651401008	8.89829762063313	0.95
0.95	a thief	an assassin	70	torture	1	96	1	strangle	personal	d	Yes	8.99404829561107	N/A	-1	0.494268292682927	0.0435287017682407	0.988536585365854	-1	0	FALSE	-0.011463414634146	0	0.195970784302971	8.7980775113081	0.95
0.95	an adult	an astronaut	70	torture	1	75	1	strangle	impersonal	k	No	8.75951172211649	N/A	-1	0.511754098360656	0.0443433614881619	0.976491803278688	1	0	TRUE	0.023508196721312	0	-0.0742373535276438	8.83374907564413	0.95
0.95	a gang member	a thief	70	torture	1	82	1	unidentified	impersonal	k	No	8.73953642255968	N/A	-1	0.480940677966102	0.045567624747039	0.961881355932203	-1	1	FALSE	-0.038118644067797	1	-0.0823221316391115	8.82185855419879	0.95
0.95	an adult	a mentor	70	torture	1	61	1	unidentified	impersonal	k	No	8.72404474595347	N/A	-1	0.480545454545455	0.0466048911489246	0.961090909090909	1	0	TRUE	0.038909090909091	0	-0.133485372581347	8.85753011853482	0.95
0.95	an orphan	an elderly person	70	torture	1	25	1	strangle	impersonal	d	Yes	9.64730414714372	N/A	-1	0.472913793103448	0.0461738531204516	0.945827586206897	1	1	TRUE	0.054172413793103	1	0.728622775461426	8.91868137168229	0.95
0.95	an astronaut	a billionaire	70	torture	1	32	1	unidentified	personal	d	Yes	9.23883064237581	N/A	-1	0.456103448275862	0.0459782540993934	0.912206896551724	1	1	TRUE	0.087793103448276	1	0.332039792138861	8.90679085023695	0.95
0.05	a mentor	a pedophile	33	torture	1	172	1	unidentified	personal	d	No	7.50218648660292	N/A	-1	0.961666666666667	0.0173950872145792	0.0766666666666667	1	0	TRUE	0.923333333333333	0	-0.489513227059365	7.99169971366229	0.05
0.05	a terrorist	an orphan	33	torture	1	43	1	unidentified	personal	d	No	7.5207764150628	N/A	-1	0.029864406779661	0.0160637756380309	0.059728813559322	-1	1	FALSE	-0.940271186440678	1	-0.470923313407967	7.99169972847076	0.05
0.05	a pedophile	an adult	33	torture	1	74	1	unidentified	impersonal	d	No	8.04462627976734	N/A	-1	0.034344262295082	0.015825463196448	0.0686885245901639	-1	1	FALSE	-0.931311475409836	1	0.0529265661050005	7.99169971366234	0.05
0.05	a terrorist	an adult	33	torture	1	8	1	unidentified	personal	d	No	7.99193051985248	N/A	-1	0.0409230769230769	0.018282671881899	0.0818461538461539	-1	1	FALSE	-0.918153846153846	1	-0.0233407118831668	8.01527123173564	0.05
0.05	an astronaut	a rapist	33	torture	1	139	1	strangle	personal	k	Yes	7.96970358327866	N/A	-1	0.0476384615384615	0.0184543359451891	0.095276923076923	1	1	TRUE	0.904723076923077	1	-0.0219961303836333	7.99169971366229	0.05
0.05	an astronaut	a rapist	33	torture	1	55	1	strangle	personal	k	Yes	8.35655484545343	N/A	-1	0.0476384615384615	0.0184543359451891	0.095276923076923	1	1	TRUE	0.904723076923077	1	0.364855131680435	7.99169971377299	0.05
0.05	a pedophile	an orphan	33	torture	1	92	1	strangle	personal	d	No	8.62263370387423	N/A	-1	0.0286747967479675	0.0146488578211018	0.0573495934959349	-1	1	FALSE	-0.942650406504065	1	0.630933990211945	7.99169971366229	0.05
0.05	a pedophile	an olympian	33	torture	1	147	1	strangle	impersonal	d	No	8.16791936295782	N/A	-1	0.0391949152542373	0.0182843377994394	0.0783898305084746	-1	1	FALSE	-0.921610169491525	1	0.176219649295527	7.99169971366229	0.05
0.05	a pedophile	a soldier	33	torture	1	65	1	unidentified	impersonal	d	No	7.74283595543075	N/A	-1	0.0253951612903226	0.0142856636459407	0.0507903225806452	-1	1	FALSE	-0.949209677419355	1	-0.248863758233411	7.99169971366416	0.05
0.05	a rapist	an orphan	33	torture	1	37	1	strangle	impersonal	d	No	7.53369370984863	N/A	-1	0.0348650793650794	0.0158741101836107	0.0697301587301588	-1	1	FALSE	-0.930269841269841	1	-0.458006175086812	7.99169988493544	0.05
0.05	a terrorist	a college student	33	torture	1	130	1	unidentified	personal	d	No	8.19836438996762	N/A	-1	0.954008547008547	0.0198968379250805	0.091982905982906	-1	1	FALSE	-0.908017094017094	1	0.206664676305332	7.99169971366229	0.05
0.05	a terrorist	a mentor	33	torture	1	120	1	unidentified	impersonal	d	No	7.38832785957711	N/A	-1	0.95297520661157	0.0189202799156536	0.0940495867768594	-1	1	FALSE	-0.905950413223141	1	-0.603371854085182	7.99169971366229	0.05
0.15	a police officer	a terrorist	33	torture	1	157	1	unidentified	impersonal	d	No	7.71020519443253	N/A	-1	0.935637795275591	0.0224759664173576	0.128724409448819	1	0	TRUE	0.871275590551181	0	-0.281494519229756	7.99169971366229	0.15
0.15	a judge	a terrorist	33	torture	1	15	1	unidentified	personal	k	Yes	7.82284529027977	N/A	-1	0.928949579831933	0.0235531555332125	0.142100840336134	1	1	TRUE	0.857899159663866	1	-0.170209650591496	7.99305494087127	0.15
0.15	a soldier	a thief	33	torture	1	162	1	strangle	personal	d	No	8.2630748358026	N/A	-1	0.906613445378151	0.025824002044797	0.186773109243697	1	0	TRUE	0.813226890756303	0	0.271375122140308	7.99169971366229	0.15
0.15	an assassin	an astronaut	33	torture	1	91	1	strangle	impersonal	d	No	8.48322267184508	N/A	-1	0.0898828125	0.0251099939948124	0.179765625	-1	1	FALSE	-0.820234375	1	0.491522958182795	7.99169971366229	0.15
0.15	a pedophile	a judge	33	torture	1	87	1	strangle	personal	d	No	8.24695803256818	N/A	-1	0.948895161290323	0.0200896090833428	0.102209677419355	-1	1	FALSE	-0.897790322580645	1	0.255258318905888	7.99169971366229	0.15
0.15	a nun	a terrorist	33	torture	1	84	1	unidentified	impersonal	k	Yes	8.50126704086598	N/A	-1	0.924688524590164	0.0232050767994503	0.150622950819672	1	1	TRUE	0.849377049180328	1	0.509567327203688	7.99169971366229	0.15
0.15	a police officer	a terrorist	33	torture	1	141	1	strangle	impersonal	k	Yes	7.30787278076371	N/A	-1	0.935637795275591	0.0224759664173576	0.128724409448819	1	1	TRUE	0.871275590551181	1	-0.683826932898583	7.99169971366229	0.15
0.15	an assassin	an olympian	33	torture	1	114	1	strangle	impersonal	d	No	8.11820704940578	N/A	-1	0.0995338983050847	0.0275945757922735	0.199067796610169	-1	1	FALSE	-0.800932203389831	1	0.126507335743494	7.99169971366229	0.15
0.15	a terrorist	a homeless adult	33	torture	1	94	1	unidentified	impersonal	d	No	8.70068073485016	N/A	-1	0.910452380952381	0.0250985860540854	0.179095238095238	-1	1	FALSE	-0.820904761904762	1	0.708981021187872	7.99169971366229	0.15
0.15	an assassin	an olympian	33	torture	1	119	1	unidentified	impersonal	d	No	7.1777824161952	N/A	-1	0.0995338983050847	0.0275945757922735	0.199067796610169	-1	1	FALSE	-0.800932203389831	1	-0.813917297467092	7.99169971366229	0.15
0.15	a terrorist	an olympian	33	torture	1	47	1	strangle	personal	d	No	7.99530662029082	N/A	-1	0.0506371681415929	0.0198943284222663	0.101274336283186	-1	1	FALSE	-0.898725663716814	1	0.00360690373302752	7.99169971655779	0.15
0.15	a billionaire	a pedophile	33	torture	1	79	1	strangle	impersonal	k	Yes	8.3170334764924	N/A	-1	0.911060344827586	0.0267549087908591	0.177879310344828	1	1	TRUE	0.822120689655172	1	0.325333762830108	7.9916997136623	0.15
0.15	an elderly person	a thief	33	torture	1	163	1	unidentified	impersonal	d	No	8.64400203827993	N/A	-1	0.0895086206896552	0.0267379426677014	0.17901724137931	1	0	TRUE	0.82098275862069	0	0.652302324617644	7.99169971366229	0.15
0.15	a terrorist	a judge	33	torture	1	138	1	unidentified	impersonal	d	No	7.80669637252118	N/A	-1	0.928949579831933	0.0235531555332125	0.142100840336134	-1	1	FALSE	-0.857899159663866	1	-0.18500334114111	7.99169971366229	0.15
0.15	an assassin	a soldier	33	torture	1	64	1	unidentified	personal	d	No	7.89543600694297	N/A	-1	0.925896	0.0230590742421482	0.148208	-1	1	FALSE	-0.851792	1	-0.0962637067221381	7.9916997136651	0.15
0.15	a rapist	a college student	33	torture	1	165	1	unidentified	impersonal	d	No	7.89469085042562	N/A	-1	0.949314516129032	0.0189770116563248	0.101370967741935	-1	1	FALSE	-0.898629032258065	1	-0.097008863236665	7.99169971366229	0.15
0.15	a homeless adult	a terrorist	33	torture	1	46	1	unidentified	impersonal	k	Yes	7.7336835707759	N/A	-1	0.910452380952381	0.0250985860540854	0.179095238095238	1	1	TRUE	0.820904761904762	1	-0.258016147240713	7.99169971801661	0.15
0.15	a homeless adult	a pedophile	33	torture	1	148	1	unidentified	personal	d	No	7.76429600645052	N/A	-1	0.924580152671756	0.0228070940929906	0.150839694656488	1	0	TRUE	0.849160305343512	0	-0.227403707211771	7.99169971366229	0.15
0.15	an assassin	a mentor	33	torture	1	66	1	unidentified	personal	d	No	7.71110125184016	N/A	-1	0.900732283464567	0.0279379356743691	0.198535433070866	-1	1	FALSE	-0.801464566929134	1	-0.280598461823375	7.99169971366353	0.15
0.25	a judge	an assassin	33	torture	1	100	1	unidentified	impersonal	k	Yes	7.7553388128465	N/A	-1	0.861274193548387	0.0316994440123548	0.277451612903226	1	1	TRUE	0.722548387096774	1	-0.236360900815788	7.99169971366229	0.25
0.25	an adult	a thief	33	torture	1	105	1	strangle	personal	d	No	8.05102220819068	N/A	-1	0.105282051282051	0.0286804498462789	0.210564102564103	1	0	TRUE	0.789435897435897	0	0.0593224945283897	7.99169971366229	0.25
0.25	a congressman	a rapist	33	torture	1	67	1	strangle	personal	d	No	8.21635833238616	N/A	-1	0.855307692307692	0.0313378168142828	0.289384615384615	1	0	TRUE	0.710615384615385	0	0.224658618723039	7.99169971366312	0.25
0.25	a gang member	a college student	33	torture	1	80	1	unidentified	personal	d	No	7.90948949267376	N/A	-1	0.858273504273504	0.0315045829003627	0.283452991452992	-1	1	FALSE	-0.716547008547008	1	-0.082210220988534	7.99169971366229	0.25
0.25	a gang member	a police officer	33	torture	1	33	1	strangle	impersonal	d	No	7.50218648660292	N/A	-1	0.141937007874016	0.029939677073058	0.283874015748032	-1	1	FALSE	-0.716125984251968	1	-0.489514103001191	7.99170058960412	0.25
0.25	a police officer	an assassin	33	torture	1	58	1	strangle	impersonal	k	Yes	8.39140318535794	N/A	-1	0.883398496240602	0.0273431689265252	0.233203007518797	1	1	TRUE	0.766796992481203	1	0.399703471663098	7.99169971369484	0.25
0.25	a terrorist	a billionaire	33	torture	1	85	1	strangle	personal	d	No	7.61381868480863	N/A	-1	0.894315315315315	0.0286633224386688	0.211369369369369	-1	1	FALSE	-0.788630630630631	1	-0.377881028853661	7.99169971366229	0.25
0.25	a thief	an olympian	33	torture	1	124	1	unidentified	impersonal	d	No	7.58882987830781	N/A	-1	0.130849557522124	0.0315607070630143	0.261699115044248	-1	1	FALSE	-0.738300884955752	1	-0.402869835354476	7.99169971366229	0.25
0.25	an astronaut	a gang member	33	torture	1	173	1	strangle	impersonal	d	No	7.34923082461333	N/A	-1	0.132577235772358	0.030749614149	0.265154471544715	1	0	TRUE	0.734845528455285	0	-0.642468889048954	7.99169971366229	0.25
0.25	a rapist	a celebrity	33	torture	1	54	1	unidentified	personal	d	No	8.10046489102936	N/A	-1	0.874705882352941	0.0295773111610786	0.250588235294118	-1	1	FALSE	-0.749411764705882	1	0.108765177200599	7.99169971382876	0.25
0.25	an astronaut	a gang member	33	torture	1	106	1	strangle	impersonal	d	No	8.11939858961229	N/A	-1	0.132577235772358	0.030749614149	0.265154471544715	1	0	TRUE	0.734845528455285	0	0.127698875950005	7.99169971366229	0.25
0.25	a thief	a college student	33	torture	1	57	1	unidentified	impersonal	d	No	7.78655180642871	N/A	-1	0.87442735042735	0.0311801202848037	0.251145299145299	-1	1	FALSE	-0.748854700854701	1	-0.205147907282528	7.99169971371124	0.25
0.25	a billionaire	a terrorist	33	torture	1	93	1	strangle	personal	k	Yes	7.69984240739699	N/A	-1	0.894315315315315	0.0286633224386688	0.211369369369369	1	1	TRUE	0.788630630630631	1	-0.291857306265303	7.99169971366229	0.25
0.25	an adult	an assassin	33	torture	1	13	1	unidentified	impersonal	d	No	8.32941678393932	N/A	-1	0.891219512195122	0.0287833976459904	0.217560975609756	1	0	TRUE	0.782439024390244	0	0.334652249412745	7.99476453452657	0.25
0.25	a convict	an elderly person	33	torture	1	151	1	unidentified	impersonal	k	Yes	8.13856473726163	N/A	-1	0.139190476190476	0.0310396123791805	0.278380952380952	-1	0	FALSE	-0.721619047619048	0	0.146865023599343	7.99169971366229	0.25
0.35	a thief	a homeless adult	33	torture	1	3	1	unidentified	impersonal	d	No	8.00235954625271	N/A	-1	0.812293650793651	0.0340138088006348	0.375412698412698	-1	1	FALSE	-0.624587301587302	1	-0.17062856529189	8.1729881115446	0.35
0.35	a thief	a judge	33	torture	1	10	1	unidentified	impersonal	d	No	7.41938058291869	N/A	-1	0.827621848739496	0.0340561759999284	0.344756302521008	-1	1	FALSE	-0.655243697478992	1	-0.582742174720567	8.00212275763926	0.35
0.35	a mentor	a convict	33	torture	1	63	1	strangle	impersonal	k	Yes	7.54115245513631	N/A	-1	0.158511450381679	0.0320277711300361	0.317022900763359	1	1	TRUE	0.682977099236641	1	-0.450547258530213	7.99169971366652	0.35
0.35	a gang member	a nun	33	torture	1	32	1	unidentified	impersonal	k	Yes	7.94626364358054	N/A	-1	0.159852459016393	0.032052520985684	0.319704918032787	-1	0	FALSE	-0.680295081967213	0	-0.0454373873425125	7.99170103092305	0.35
0.35	a mentor	a convict	33	torture	1	2	1	unidentified	personal	k	Yes	8.0870254706677	N/A	-1	0.158511450381679	0.0320277711300361	0.317022900763359	1	1	TRUE	0.682977099236641	1	-0.177299760197331	8.26432523086503	0.35
0.35	an addict	a soldier	33	torture	1	53	1	unidentified	impersonal	k	Yes	8.08209327817838	N/A	-1	0.81148717948718	0.0363332669184672	0.377025641025641	-1	0	FALSE	-0.622974358974359	0	0.0903935642657441	7.99169971391264	0.35
0.35	a college student	a convict	33	torture	1	152	1	unidentified	impersonal	k	Yes	7.99429498641598	N/A	-1	0.810417322834646	0.0339347649336858	0.379165354330709	1	1	TRUE	0.620834645669291	1	0.00259527275368843	7.99169971366229	0.35
0.35	a soldier	an addict	33	torture	1	86	1	unidentified	impersonal	k	Yes	8.15190987294091	N/A	-1	0.81148717948718	0.0363332669184672	0.377025641025641	1	1	TRUE	0.622974358974359	1	0.160210159278616	7.99169971366229	0.35
0.35	an elderly person	an addict	33	torture	1	69	1	strangle	personal	d	No	8.93590352627442	N/A	-1	0.179964912280702	0.0371848237841866	0.359929824561404	1	0	TRUE	0.640070175438596	0	0.944203812611768	7.99169971366265	0.35
0.35	an adult	a convict	33	torture	1	89	1	strangle	personal	k	Yes	8.04942705711069	N/A	-1	0.163779527559055	0.0324434073075244	0.32755905511811	1	1	TRUE	0.67244094488189	1	0.0577273434484056	7.99169971366229	0.35
0.35	an orphan	an addict	33	torture	1	142	1	unidentified	impersonal	k	Yes	8.00168997809913	N/A	-1	0.167077586206897	0.0340002823946035	0.334155172413793	1	1	TRUE	0.665844827586207	1	0.00999026443684592	7.99169971366229	0.35
0.35	a terrorist	an addict	33	torture	1	160	1	strangle	personal	d	No	8.05229649953865	N/A	-1	0.153724137931034	0.0335020884210678	0.307448275862069	-1	1	FALSE	-0.692551724137931	1	0.0605967858763581	7.99169971366229	0.35
0.35	an addict	an elderly person	33	torture	1	25	1	strangle	personal	d	No	7.29641326877392	N/A	-1	0.179964912280702	0.0371848237841866	0.359929824561404	-1	1	FALSE	-0.640070175438596	1	-0.695309356054635	7.99172262482855	0.35
0.35	a congressman	a terrorist	33	torture	1	128	1	strangle	impersonal	k	Yes	8.24301946898925	N/A	-1	0.844918181818182	0.0347030985482637	0.310163636363636	1	1	TRUE	0.689836363636364	1	0.251319755326961	7.99169971366229	0.35
0.35	an orphan	an addict	33	torture	1	76	1	strangle	personal	k	Yes	7.42476176182321	N/A	-1	0.167077586206897	0.0340002823946035	0.334155172413793	1	1	TRUE	0.665844827586207	1	-0.566937951839101	7.99169971366231	0.35
0.35	a convict	an olympian	33	torture	1	99	1	strangle	impersonal	d	No	8.25192471380136	N/A	-1	0.189569105691057	0.0360981333958361	0.379138211382114	-1	1	FALSE	-0.620861788617886	1	0.260225000139068	7.99169971366229	0.35
0.35	a convict	an astronaut	33	torture	1	28	1	strangle	impersonal	d	No	7.86978390253015	N/A	-1	0.175218045112782	0.0339296475350126	0.350436090225564	-1	1	FALSE	-0.649563909774436	1	-0.121922547995247	7.99170645052539	0.35
0.35	a billionaire	an assassin	33	torture	1	60	1	strangle	impersonal	k	Yes	8.32579052588609	N/A	-1	0.829521367521368	0.0366999445759961	0.340957264957265	1	1	TRUE	0.659042735042735	1	0.334090812209407	7.99169971367668	0.35
0.45	a gang member	a billionaire	33	torture	1	42	1	unidentified	impersonal	d	No	8.1300590399928	N/A	-1	0.777558558558559	0.0391994927445522	0.444882882882883	-1	1	FALSE	-0.555117117117117	1	0.138359304061193	7.9916997359316	0.45
0.45	a congressman	a soldier	33	torture	1	154	1	strangle	personal	d	No	7.97177612288063	N/A	-1	0.234396396396396	0.0407064593659514	0.468792792792793	-1	1	FALSE	-0.531207207207207	1	-0.0199235907816613	7.99169971366229	0.45
0.45	a thief	a pedophile	33	torture	1	102	1	unidentified	personal	d	No	8.0149968943483	N/A	-1	0.206731707317073	0.0368835162826901	0.413463414634146	1	0	TRUE	0.586536585365854	0	0.0232971806860132	7.99169971366229	0.45
0.45	an adult	an addict	33	torture	1	50	1	strangle	personal	k	Yes	7.76599307940768	N/A	-1	0.218608695652174	0.0385640831832313	0.437217391304348	1	1	TRUE	0.562782608695652	1	-0.225706635106016	7.99169971451369	0.45
0.45	a convict	a nun	33	torture	1	95	1	unidentified	impersonal	d	No	8.59507973007331	N/A	-1	0.206212121212121	0.0339590832478958	0.412424242424242	-1	1	FALSE	-0.587575757575758	1	0.60338001641102	7.99169971366229	0.45
0.45	a convict	a nun	33	torture	1	125	1	unidentified	personal	d	No	7.91899248816525	N/A	-1	0.206212121212121	0.0339590832478958	0.412424242424242	-1	1	FALSE	-0.587575757575758	1	-0.0727072254970436	7.99169971366229	0.45
0.45	a convict	a judge	33	torture	1	169	1	strangle	impersonal	d	No	8.0532511535491	N/A	-1	0.201325581395349	0.0345531512140384	0.402651162790698	-1	1	FALSE	-0.597348837209302	1	0.0615514398868076	7.99169971366229	0.45
0.45	a homeless adult	a convict	33	torture	1	17	1	unidentified	personal	d	No	8.08886878916199	N/A	-1	0.209544117647059	0.0346042756049914	0.419088235294118	1	0	TRUE	0.580911764705882	0	0.0965698102018946	7.9922989789601	0.45
0.45	a thief	a rapist	33	torture	1	30	1	unidentified	impersonal	k	Yes	8.01433573729942	N/A	-1	0.230256	0.0376549646177016	0.460512	1	1	TRUE	0.539488	1	0.022633044676672	7.99170269262275	0.45
0.45	an assassin	a pedophile	33	torture	1	36	1	strangle	impersonal	k	Yes	8.23031079913502	N/A	-1	0.2419140625	0.0371898268010869	0.483828125	1	1	TRUE	0.516171875	1	0.238610827908358	7.99169997122666	0.45
0.55	a soldier	a homeless adult	33	torture	1	5	1	strangle	impersonal	d	No	8.48920515487607	N/A	-1	0.2772578125	0.0409014693302939	0.554515625	1	0	TRUE	0.445484375	0	0.417341875262643	8.07186327961343	0.55
0.55	a celebrity	a gang member	33	torture	1	112	1	unidentified	impersonal	d	No	7.96067260838812	N/A	-1	0.744261261261261	0.0398569023490935	0.511477477477478	1	0	TRUE	0.488522522522522	0	-0.0310271052741715	7.99169971366229	0.55
0.55	a gang member	a celebrity	33	torture	1	88	1	unidentified	impersonal	d	No	7.93666015522543	N/A	-1	0.744261261261261	0.0398569023490935	0.511477477477478	-1	1	FALSE	-0.488522522522522	1	-0.0550395584368628	7.99169971366229	0.55
0.55	a convict	a pedophile	33	torture	1	150	1	strangle	personal	d	No	8.30647216010058	N/A	-1	0.702255639097744	0.0415051708328112	0.595488721804511	1	0	TRUE	0.404511278195489	0	0.314772446438296	7.99169971366229	0.55
0.55	a thief	a congressman	33	torture	1	41	1	strangle	impersonal	d	No	8.40581460343285	N/A	-1	0.730127272727273	0.0437295808713659	0.539745454545455	-1	1	FALSE	-0.460254545454545	1	0.41411485628147	7.99169974715138	0.55
0.55	a mentor	an addict	33	torture	1	71	1	strangle	impersonal	k	Yes	7.54009032014532	N/A	-1	0.74653781512605	0.0407361600189282	0.506924369747899	1	1	TRUE	0.493075630252101	1	-0.451609393517126	7.99169971366245	0.55
0.55	an addict	an olympian	33	torture	1	59	1	strangle	impersonal	d	No	8.04044688130311	N/A	-1	0.263972972972973	0.040312090485972	0.527945945945946	-1	1	FALSE	-0.472054054054054	1	0.0487471676191751	7.99169971368393	0.55
0.55	a police officer	an addict	33	torture	1	9	1	strangle	impersonal	d	No	8.53719187792293	N/A	-1	0.734712	0.0395668876030778	0.530576	1	0	TRUE	0.469424	0	0.529817759344262	8.00737411857867	0.55
0.55	a soldier	a celebrity	33	torture	1	62	1	strangle	personal	d	No	7.5137092478397	N/A	-1	0.270929203539823	0.0404238262219043	0.541858407079646	1	0	TRUE	0.458141592920354	0	-0.477990465828949	7.99169971366865	0.55
0.55	a thief	an addict	33	torture	1	77	1	unidentified	impersonal	d	No	7.58120982619635	N/A	-1	0.289793103448276	0.0421554866151259	0.579586206896552	-1	1	FALSE	-0.420413793103448	1	-0.410489887465957	7.9916997136623	0.55
0.55	a thief	a terrorist	33	torture	1	122	1	unidentified	impersonal	d	No	8.62011072542292	N/A	-1	0.267127118644068	0.041226199879026	0.534254237288136	1	0	TRUE	0.465745762711864	0	0.628411011760635	7.99169971366229	0.55
0.55	a celebrity	an orphan	33	torture	1	23	1	strangle	impersonal	d	No	7.66152708135852	N/A	-1	0.296142857142857	0.0426057980742028	0.592285714285714	-1	1	FALSE	-0.407714285714286	1	-0.330224445475712	7.99175152683423	0.55
0.55	a congressman	a gang member	33	torture	1	126	1	strangle	impersonal	d	No	7.88945914940452	N/A	-1	0.707463636363636	0.0443229412173818	0.585072727272727	1	0	TRUE	0.414927272727273	0	-0.102240564257765	7.99169971366229	0.55
0.65	an addict	a homeless adult	33	torture	1	108	1	strangle	personal	d	No	7.12367278520461	N/A	-1	0.664516129032258	0.041885030889668	0.670967741935484	-1	1	FALSE	-0.329032258064516	1	-0.868026928457682	7.99169971366229	0.65
0.65	a gang member	a pedophile	33	torture	1	98	1	unidentified	personal	d	No	8.33423142973486	N/A	-1	0.664211382113821	0.0446065924835502	0.671577235772358	1	0	TRUE	0.328422764227642	0	0.342531716072571	7.99169971366229	0.65
