overlapRound	Item1	Item2	sn	cond	sess	trial	trial_type	title	typeOfScen	keybResp	keyDef	keybRT	rtBeep	rtDeadline	averageP	sdp	overlap	direct.xVy	correct	targetPresent	dirOverlap	correct01	res.RT	fit.RT	overlapRoundSN
0.05	a pedophile	a college student	49	torture	1	117	1	unidentified	impersonal	d	No	7.79193595693806	N/A	-1	0.00849568965517241	0.00787921190011094	0.0169913793103448	-1	1	FALSE	-0.983008620689655	1	-0.149492551318526	7.94142850825658	0.05
0.05	a pedophile	a nun	49	torture	1	151	1	unidentified	impersonal	d	No	8.18729927015515	N/A	-1	0.017125	0.0110718619840775	0.03425	-1	1	FALSE	-0.96575	1	0.268001005289352	7.9192982648658	0.05
0.05	a police officer	a terrorist	49	torture	1	73	1	unidentified	personal	k	Yes	7.63867982387611	N/A	-1	0.968052845528455	0.0151058397911192	0.0638943089430895	1	1	TRUE	0.93610569105691	1	-0.406902314317882	8.045582138194	0.05
0.05	a rapist	a judge	49	torture	1	87	1	unidentified	impersonal	d	No	7.50878717063428	N/A	-1	0.0381859504132231	0.0163672921492369	0.0763719008264463	-1	1	FALSE	-0.923628099173554	1	-0.486869272842879	7.99565644347715	0.05
0.05	a mentor	a terrorist	49	torture	1	81	1	unidentified	impersonal	k	Yes	7.53208814354172	N/A	-1	0.979961206896552	0.0125831961748912	0.0400775862068965	1	1	TRUE	0.959922413793104	1	-0.482244939210313	8.01433308275204	0.05
0.05	a rapist	an elderly person	49	torture	1	10	1	strangle	personal	d	No	9.17668017048355	N/A	-1	0.0213097826086957	0.00677199130582788	0.0426195652173913	-1	1	FALSE	-0.957380434782609	1	0.219968456084059	8.95671171439949	0.05
0.05	a pedophile	a police officer	49	torture	1	135	1	unidentified	impersonal	d	No	7.94661756324447	N/A	-1	0.0180753968253968	0.0115635400436319	0.0361507936507937	-1	1	FALSE	-0.963849206349206	1	0.019824009349473	7.926793553895	0.05
0.05	a nun	a pedophile	49	torture	1	123	1	strangle	impersonal	k	Yes	7.85243908535751	N/A	-1	0.982395833333333	0.0112389225173757	0.0352083333333333	1	1	TRUE	0.964791666666667	1	-0.0831425255917742	7.93558161094928	0.05
0.05	a terrorist	a soldier	49	torture	1	152	1	strangle	impersonal	d	No	7.61184239958042	N/A	-1	0.0117061403508772	0.00969717632472512	0.0234122807017544	-1	1	FALSE	-0.976587719298246	1	-0.307103665822165	7.91894606540258	0.05
0.05	a terrorist	an astronaut	49	torture	1	59	1	unidentified	impersonal	d	No	7.91971976092457	N/A	-1	0.0207478632478632	0.0127983740075126	0.0414957264957265	-1	1	FALSE	-0.958504273504273	1	-0.204290040496686	8.12400980142126	0.05
0.05	a pedophile	an astronaut	49	torture	1	148	1	unidentified	impersonal	d	No	7.63482067774554	N/A	-1	0.0095875	0.00856209105027231	0.0191749999999999	-1	1	FALSE	-0.980825	1	-0.285604995677239	7.92042567342278	0.05
0.05	a pedophile	an elderly person	49	torture	1	84	1	unidentified	personal	d	No	7.61283103040736	N/A	-1	0.0111189956331878	0.00477236400907035	0.0222379912663755	-1	1	FALSE	-0.977762008733625	1	-0.39171220288082	8.00454323328818	0.05
0.05	a soldier	a pedophile	49	torture	1	42	1	unidentified	personal	k	Yes	8.6741969402259	N/A	-1	0.994145299145299	0.00651120151352893	0.0117094017094017	1	1	TRUE	0.988290598290598	1	0.392536783235288	8.28166015699061	0.05
0.05	an elderly person	a terrorist	49	torture	1	130	1	strangle	personal	k	Yes	7.53047999524554	N/A	-1	0.977483480176211	0.00665379425068745	0.0450330396475771	1	1	TRUE	0.954966960352423	1	-0.399567483872511	7.93004747911805	0.05
0.05	a terrorist	a nun	49	torture	1	14	1	unidentified	personal	d	No	8.7876782390395	N/A	-1	0.036875	0.0166537260333573	0.07375	-1	1	FALSE	-0.92625	1	-0.0420996043343678	8.82977784337386	0.05
0.05	an orphan	a pedophile	49	torture	1	60	1	unidentified	personal	k	Yes	7.9251575122247	N/A	-1	0.994264957264957	0.00645754540069808	0.0114700854700855	1	1	TRUE	0.988529914529914	1	-0.192001468700805	8.11715898092551	0.05
0.05	a nun	a terrorist	49	torture	1	141	1	strangle	impersonal	k	Yes	7.58731050602262	N/A	-1	0.963189655172414	0.0160980550277143	0.0736206896551723	1	1	TRUE	0.926379310344828	1	-0.336211608819465	7.92352211484208	0.05
0.05	a rapist	a mentor	49	torture	1	4	1	unidentified	personal	d	No	8.90163893230033	N/A	-1	0.0195040983606557	0.0113374105531104	0.0390081967213115	-1	1	FALSE	-0.960991803278688	1	-0.278994956378993	9.18063388867932	0.05
0.15	a college student	an assassin	49	torture	1	93	1	strangle	personal	k	Yes	8.05579245097777	N/A	-1	0.944094827586207	0.0205553479441909	0.111810344827586	1	1	TRUE	0.888189655172414	1	0.0755259330901517	7.98026651788762	0.15
0.15	a police officer	a thief	49	torture	1	98	1	unidentified	impersonal	k	Yes	7.92804560087478	N/A	-1	0.903487903225806	0.0252877897897964	0.193024193548387	1	1	TRUE	0.806975806451613	1	-0.0414861851342101	7.96953178600899	0.15
0.15	an orphan	a thief	49	torture	1	137	1	unidentified	personal	k	Yes	7.49886973397693	N/A	-1	0.940717391304348	0.0203818698628664	0.118565217391304	1	1	TRUE	0.881434782608696	1	-0.426762275315612	7.92563200929254	0.15
0.15	an astronaut	a thief	49	torture	1	47	1	strangle	personal	k	Yes	8.01301211036892	N/A	-1	0.90743220338983	0.0260943364766048	0.185135593220339	1	1	TRUE	0.814864406779661	1	-0.21301664613701	8.22602875650593	0.15
0.15	a gang member	an orphan	49	torture	1	157	1	unidentified	impersonal	d	No	7.74932246466036	N/A	-1	0.0791086956521739	0.0252618550035034	0.158217391304348	-1	1	FALSE	-0.841782608695652	1	-0.168023381596472	7.91734584625683	0.15
0.15	an assassin	a police officer	49	torture	1	155	1	unidentified	impersonal	d	No	7.90470391387375	N/A	-1	0.0741771653543307	0.0225341617884674	0.148354330708661	-1	1	FALSE	-0.851645669291339	1	-0.0132512286563315	7.91795514253008	0.15
0.15	a rapist	a billionaire	49	torture	1	29	1	unidentified	impersonal	d	No	8.10621290261996	N/A	-1	0.069578947368421	0.0218931361613793	0.139157894736842	-1	1	FALSE	-0.860842105263158	1	-0.370025355136255	8.47623825775622	0.15
0.15	a rapist	a billionaire	49	torture	1	88	1	strangle	personal	d	No	7.46106551435428	N/A	-1	0.069578947368421	0.0218931361613793	0.139157894736842	-1	1	FALSE	-0.860842105263158	1	-0.531814719396829	7.99288023375111	0.15
0.15	a gang member	a soldier	49	torture	1	138	1	unidentified	personal	d	No	7.95787735848981	N/A	-1	0.075104347826087	0.0242560568890393	0.150208695652174	-1	1	FALSE	-0.849791304347826	1	0.0327986150265458	7.92507874346327	0.15
0.15	an elderly person	an assassin	49	torture	1	5	1	strangle	personal	k	Yes	8.7804801070333	N/A	-1	0.939402838427948	0.0109475834209697	0.121194323144105	1	1	TRUE	0.878805676855895	1	-0.359760154367212	9.14024026140051	0.15
0.15	a nun	an assassin	49	torture	1	149	1	strangle	impersonal	k	Yes	7.77653502818524	N/A	-1	0.9075125	0.0251324869903276	0.184975	1	1	TRUE	0.815025	1	-0.143502655896121	7.92003768408136	0.15
0.15	a pedophile	a billionaire	49	torture	1	150	1	unidentified	impersonal	d	No	8.12237124340655	N/A	-1	0.0532387387387387	0.0195731580578257	0.106477477477477	-1	1	FALSE	-0.893522522522523	1	0.202709231843938	7.91966201156261	0.15
0.25	a convict	an elderly person	49	torture	1	36	1	unidentified	impersonal	d	No	8.39412119382624	N/A	-1	0.148623655913978	0.0166557555521019	0.297247311827957	-1	1	FALSE	-0.702752688172043	1	0.0327046792869616	8.36141651453928	0.25
0.25	a convict	an orphan	49	torture	1	66	1	unidentified	impersonal	d	No	7.85864065562079	N/A	-1	0.118512096774194	0.0291659214307243	0.237024193548387	-1	1	FALSE	-0.762975806451613	1	-0.221746391594882	8.08038704721567	0.25
0.25	a gang member	an elderly person	49	torture	1	116	1	strangle	personal	d	No	8.03300949859667	N/A	-1	0.103112087912088	0.0144072456773767	0.206224175824176	-1	1	FALSE	-0.793775824175824	1	0.0904916801007714	7.9425178184959	0.25
0.25	an adult	a gang member	49	torture	1	94	1	unidentified	impersonal	k	Yes	7.53849499941346	N/A	-1	0.877899805447471	0.0142324751036477	0.244200389105058	1	1	TRUE	0.755799610894942	1	-0.439483865943313	7.97797886535678	0.25
0.25	a convict	an elderly person	49	torture	1	118	1	unidentified	personal	d	No	7.71824095195932	N/A	-1	0.148623655913978	0.0166557555521019	0.297247311827957	-1	1	FALSE	-0.702752688172043	1	-0.222132826495148	7.94037377845446	0.25
0.25	a terrorist	a celebrity	49	torture	1	134	1	unidentified	personal	d	No	8.62389281007529	N/A	-1	0.10048623853211	0.0277117603990621	0.20097247706422	-1	1	FALSE	-0.79902752293578	1	0.696489768469062	7.92740304160623	0.25
0.25	a soldier	an addict	49	torture	1	101	1	unidentified	personal	k	Yes	7.76089319585102	N/A	-1	0.856044247787611	0.0310656453865941	0.287911504424779	1	1	TRUE	0.712088495575221	1	-0.202981413380528	7.96387460923155	0.25
0.25	a gang member	a police officer	49	torture	1	97	1	strangle	impersonal	d	No	8.15017926968233	N/A	-1	0.12129435483871	0.0292017025141736	0.242588709677419	-1	1	FALSE	-0.757411290322581	1	0.178636777613764	7.97154249206856	0.25
0.25	an astronaut	a gang member	49	torture	1	106	1	strangle	personal	k	Yes	7.51207124583547	N/A	-1	0.890266949152542	0.0280520697219562	0.219466101694915	1	1	TRUE	0.780533898305085	1	-0.443510428540586	7.95558167437605	0.25
0.25	a billionaire	an assassin	49	torture	1	44	1	strangle	personal	k	Yes	8.13593277200489	N/A	-1	0.867861607142857	0.0300581164507587	0.264276785714286	1	1	TRUE	0.735723214285714	1	-0.122392795866682	8.25832556787157	0.25
0.25	a pedophile	an addict	49	torture	1	136	1	unidentified	impersonal	d	No	8.44912846050211	N/A	-1	0.123176724137931	0.0294541243302115	0.246353448275862	-1	1	FALSE	-0.753646551724138	1	0.522925045972242	7.92620341452987	0.25
0.25	an astronaut	a gang member	49	torture	1	76	1	strangle	impersonal	k	Yes	7.6980291702728	N/A	-1	0.890266949152542	0.0280520697219562	0.219466101694915	1	1	TRUE	0.780533898305085	1	-0.33488056533298	8.03290973560578	0.25
0.25	an addict	a pedophile	49	torture	1	80	1	strangle	impersonal	k	Yes	8.04558828080353	N/A	-1	0.875564655172414	0.0276638958685236	0.248870689655172	1	1	TRUE	0.751129310344828	1	0.0277756338777468	8.01781264692578	0.25
0.25	a gang member	a homeless adult	49	torture	1	16	1	strangle	personal	d	No	8.30696586536857	N/A	-1	0.145397540983607	0.0312454228291551	0.290795081967213	-1	1	FALSE	-0.709204918032787	1	-0.465229483463526	8.7721953488321	0.25
0.25	a thief	a judge	49	torture	1	15	1	strangle	personal	d	No	7.96450336355155	N/A	-1	0.12823275862069	0.0301522205932493	0.256465517241379	-1	1	FALSE	-0.743534482758621	1	-0.836018869060704	8.80052223261225	0.25
0.25	a nun	a thief	49	torture	1	91	1	strangle	personal	k	Yes	7.41997992366183	N/A	-1	0.878741525423729	0.0291270220389662	0.242516949152542	1	1	TRUE	0.757483050847458	1	-0.565089367700822	7.98506929136266	0.25
0.35	a convict	a mentor	49	torture	1	129	1	unidentified	impersonal	d	No	7.74802852443238	N/A	-1	0.155755905511811	0.0297470178517351	0.311511811023622	-1	1	FALSE	-0.688488188976378	1	-0.182735125792568	7.93076365022494	0.35
0.35	a convict	an adult	49	torture	1	56	1	unidentified	impersonal	d	No	8.16791936295782	N/A	-1	0.173044933078394	0.0162213986900775	0.346089866156788	-1	1	FALSE	-0.653910133843212	1	0.0219797335384548	8.14593962941936	0.35
0.35	an assassin	a celebrity	49	torture	1	100	1	unidentified	personal	d	No	8.01961279440027	N/A	-1	0.167199115044248	0.0341285346082005	0.334398230088496	-1	1	FALSE	-0.665601769911504	1	0.0539129556604205	7.96569983873985	0.35
0.35	an orphan	an addict	49	torture	1	112	1	unidentified	impersonal	k	Yes	7.49554194388426	N/A	-1	0.840190265486726	0.0327804726311096	0.319619469026549	1	1	TRUE	0.680380530973451	1	-0.451702159991575	7.94724410387583	0.35
0.35	a convict	a mentor	49	torture	1	31	1	unidentified	impersonal	d	No	8.13329386122263	N/A	-1	0.155755905511811	0.0297470178517351	0.311511811023622	-1	1	FALSE	-0.688488188976378	1	-0.307452030794844	8.44074589201748	0.35
0.35	an orphan	an addict	49	torture	1	114	1	strangle	impersonal	k	Yes	7.94873845481361	N/A	-1	0.840190265486726	0.0327804726311096	0.319619469026549	1	1	TRUE	0.680380530973451	1	0.00393370233061319	7.944804752483	0.35
0.35	a convict	a police officer	49	torture	1	85	1	unidentified	impersonal	d	No	7.84502441724148	N/A	-1	0.162706766917293	0.0308313904127783	0.325413533834586	-1	1	FALSE	-0.674586466165414	1	-0.156460492864078	8.00148491010556	0.35
0.35	a gang member	a billionaire	49	torture	1	153	1	unidentified	personal	d	No	7.87891291229713	N/A	-1	0.184348623853211	0.0359611127030794	0.368697247706422	-1	1	FALSE	-0.631302752293578	1	-0.0396921343059047	7.91860504660304	0.35
0.45	a thief	a congressman	49	torture	1	37	1	unidentified	personal	d	No	7.83518375526675	N/A	-1	0.234389908256881	0.0391277545325713	0.468779816513762	-1	1	FALSE	-0.531220183486238	1	-0.511845400850805	8.34702915611755	0.45
0.45	a convict	a billionaire	49	torture	1	34	1	strangle	personal	d	No	8.0123496393278	N/A	-1	0.233690677966102	0.0383773479419189	0.467381355932203	-1	1	FALSE	-0.532618644067797	1	-0.379272171895419	8.39162181122321	0.45
0.45	a homeless adult	a convict	49	torture	1	96	1	unidentified	impersonal	k	Yes	7.84424071814181	N/A	-1	0.797337121212121	0.0330180450941456	0.405325757575758	1	1	TRUE	0.594674242424242	1	-0.129378403120823	7.97361912126263	0.45
0.45	a pedophile	a convict	49	torture	1	139	1	strangle	personal	d	No	7.96311205897929	N/A	-1	0.21093359375	0.0320055468356037	0.4218671875	-1	1	FALSE	-0.5781328125	1	0.0385690177774842	7.9245430412018	0.45
0.45	an addict	an adult	49	torture	1	102	1	strangle	personal	d	No	7.82724090175281	N/A	-1	0.2311025390625	0.0185300473944763	0.462205078125	-1	1	FALSE	-0.537794921875	1	-0.134866420356457	7.96210732210927	0.45
0.55	an olympian	a soldier	49	torture	1	126	1	strangle	impersonal	d	No	7.87777633327726	N/A	-1	0.29305504587156	0.0422177143309169	0.586110091743119	-1	1	FALSE	-0.413889908256881	1	-0.0552798174155038	7.93305615069276	0.55
0.55	a soldier	a homeless adult	49	torture	1	95	1	strangle	impersonal	k	Yes	7.32778053842163	N/A	-1	0.718185950413223	0.0396149993227205	0.563628099173554	1	1	TRUE	0.436371900826446	1	-0.647983296529578	7.97576383495121	0.55
0.55	a soldier	a nun	49	torture	1	64	1	unidentified	personal	d	No	8.52277756971014	N/A	-1	0.706590517241379	0.0430749532593903	0.586818965517241	1	0	TRUE	0.413181034482759	0	0.430915011010018	8.09186255870012	0.55
0.55	an addict	a judge	49	torture	1	46	1	strangle	personal	d	No	7.79234892411304	N/A	-1	0.286631578947368	0.0415779207165524	0.573263157894737	-1	1	FALSE	-0.426736842105263	1	-0.444100064152927	8.23644898826596	0.55
0.55	a judge	an addict	49	torture	1	107	1	unidentified	impersonal	k	Yes	7.78447323573647	N/A	-1	0.715614035087719	0.0404059671778926	0.568771929824561	1	1	TRUE	0.431228070175439	1	-0.169604412893674	7.95407764863014	0.55
0.55	a convict	a terrorist	49	torture	1	120	1	strangle	personal	k	Yes	7.98616486033273	N/A	-1	0.737963709677419	0.0359754203469058	0.524072580645161	1	1	TRUE	0.475927419354839	1	0.047801156382028	7.9383637039507	0.55
0.55	an assassin	an addict	49	torture	1	72	1	unidentified	impersonal	d	No	8.84419212624497	N/A	-1	0.257594017094017	0.0397575616057216	0.515188034188034	-1	1	FALSE	-0.484811965811966	1	0.794105890393089	8.05008623585188	0.55
0.55	a rapist	a gang member	49	torture	1	75	1	strangle	personal	d	No	7.94626364358054	N/A	-1	0.282995867768595	0.0377825571368934	0.56599173553719	-1	1	FALSE	-0.43400826446281	1	-0.0907347115001107	8.03699835508065	0.55
0.55	a judge	a soldier	49	torture	1	110	1	unidentified	personal	k	Yes	8.63852547658376	N/A	-1	0.29375652173913	0.0416024622702352	0.587513043478261	-1	0	FALSE	-0.412486956521739	0	0.688679445738774	7.94984603084499	0.55
0.55	a judge	a soldier	49	torture	1	19	1	strangle	personal	d	No	8.27868216297091	N/A	-1	0.29375652173913	0.0416024622702352	0.587513043478261	-1	1	FALSE	-0.412486956521739	1	-0.413814719576161	8.69249688254707	0.55
0.55	an olympian	an addict	49	torture	1	26	1	unidentified	personal	k	Yes	8.69617584694468	N/A	-1	0.728893518518518	0.0419273060848402	0.542212962962963	1	1	TRUE	0.457787037037037	1	0.162214936755225	8.53396091018945	0.55
0.65	a police officer	a congressman	49	torture	1	71	1	strangle	impersonal	d	No	8.29304913976844	N/A	-1	0.681521551724138	0.0425572533312623	0.636956896551724	1	0	TRUE	0.363043103448276	0	0.238311134631454	8.05473800513699	0.65
0.65	a gang member	a terrorist	49	torture	1	69	1	unidentified	impersonal	k	Yes	7.91607809630279	N/A	-1	0.690647826086957	0.0387443778734141	0.618704347826087	1	1	TRUE	0.381295652173913	1	-0.148425987306939	8.06450408360972	0.65
0.65	a congressman	a convict	49	torture	1	111	1	unidentified	impersonal	k	Yes	7.69256964806791	N/A	-1	0.681093220338983	0.0422044454301319	0.637813559322034	1	1	TRUE	0.362186440677966	1	-0.255954436528564	7.94852408459647	0.65
0.65	a celebrity	a college student	49	torture	1	78	1	strangle	personal	d	No	7.85515700588134	N/A	-1	0.342060747663551	0.0443917476188604	0.684121495327103	-1	1	FALSE	-0.315878504672897	1	-0.16996075329076	8.0251177591721	0.65
0.65	a mentor	a congressman	49	torture	1	162	1	unidentified	personal	k	Yes	8.20549161312024	N/A	-1	0.6823	0.0431787082614582	0.6354	1	1	TRUE	0.3646	1	0.28950761167287	7.91598400144737	0.65
0.65	a congressman	a police officer	49	torture	1	12	1	unidentified	personal	k	Yes	8.86248357648833	N/A	-1	0.316974137931034	0.0422907920046115	0.633948275862069	-1	0	FALSE	-0.366051724137931	0	-0.0287144648691822	8.89119804135751	0.65
0.65	an elderly person	a celebrity	49	torture	1	30	1	strangle	personal	d	No	8.82761475083751	N/A	-1	0.65586859688196	0.0222298492256081	0.68826280623608	1	0	TRUE	0.31173719376392	0	0.369408897639733	8.45820585319778	0.65
0.65	an adult	a congressman	49	torture	1	82	1	unidentified	personal	k	Yes	7.71912984090673	N/A	-1	0.657921936758893	0.0205052294265774	0.684156126482213	1	1	TRUE	0.315843873517787	1	-0.291834137342291	8.01096397824902	0.65
0.65	an orphan	a homeless adult	49	torture	1	20	1	strangle	personal	k	Yes	8.30176976311717	N/A	-1	0.684376033057851	0.0411319831382023	0.631247933884298	1	1	TRUE	0.368752066115702	1	-0.365829528516155	8.66759929163332	0.65
0.65	an addict	a billionaire	49	torture	1	161	1	strangle	personal	d	No	8.01994168767737	N/A	-1	0.306200934579439	0.0432425841359679	0.612401869158879	-1	1	FALSE	-0.387598130841121	1	0.10370260118069	7.91623908649667	0.65
0.65	an olympian	an orphan	49	torture	1	154	1	unidentified	personal	k	Yes	8.36357570275064	N/A	-1	0.332577981651376	0.0425697262728337	0.665155963302752	-1	0	FALSE	-0.334844036697248	0	0.445300849216555	7.91827485353408	0.65
0.65	a thief	an addict	49	torture	1	113	1	unidentified	impersonal	k	Yes	8.36147461641682	N/A	-1	0.304342105263158	0.042250912810538	0.608684210526316	-1	0	FALSE	-0.391315789473684	0	0.415469859940355	7.94600475647646	0.65
0.65	an addict	a billionaire	49	torture	1	57	1	strangle	personal	d	No	7.73455884435476	N/A	-1	0.306200934579439	0.0432425841359679	0.612401869158879	-1	1	FALSE	-0.387598130841121	1	-0.403833796468773	8.13839264082353	0.65
0.65	a rapist	a thief	49	torture	1	43	1	unidentified	impersonal	d	No	8.07402621612406	N/A	-1	0.312561983471074	0.0383801035964035	0.625123966942149	-1	1	FALSE	-0.374876033057851	1	-0.195778468782869	8.26980468490693	0.65
0.75	a college student	a homeless adult	49	torture	1	83	1	unidentified	personal	k	Yes	7.92768504561578	N/A	-1	0.614670833333333	0.0412810734638996	0.770658333333333	1	1	TRUE	0.229341666666667	1	-0.0800167812299595	8.00770182684574	0.75
0.75	a rapist	an assassin	49	torture	1	140	1	strangle	impersonal	d	No	8.32093496888341	N/A	-1	0.368729838709677	0.0356354620429647	0.737459677419355	-1	1	FALSE	-0.262540322580645	1	0.396910623935286	7.92402434494812	0.75
0.75	a judge	a college student	49	torture	1	61	1	strangle	impersonal	d	No	8.59341321732765	N/A	-1	0.397530973451327	0.0433535828665788	0.795061946902655	-1	1	FALSE	-0.204938053097345	1	0.482887575817376	8.11052564151027	0.75
0.75	an adult	a celebrity	49	torture	1	122	1	unidentified	personal	k	Yes	7.68845535654994	N/A	-1	0.615397637795276	0.0220148090987405	0.769204724409449	1	1	TRUE	0.230795275590551	1	-0.248023867898224	7.93647922444817	0.75
0.75	a soldier	a police officer	49	torture	1	3	1	strangle	impersonal	k	Yes	9.05508908670489	N/A	-1	0.609650406504065	0.0417499280749414	0.78069918699187	1	1	TRUE	0.21930081300813	1	-0.167262777240969	9.22235186394586	0.75
0.75	a college student	a homeless adult	49	torture	1	24	1	unidentified	impersonal	k	Yes	9.28210273820307	N/A	-1	0.614670833333333	0.0412810734638996	0.770658333333333	1	1	TRUE	0.229341666666667	1	0.706436956218649	8.57566578198442	0.75
0.75	an elderly person	a nun	49	torture	1	25	1	strangle	impersonal	d	No	8.60758219114392	N/A	-1	0.621098468271335	0.0223893796017583	0.75780306345733	1	0	TRUE	0.24219693654267	0	0.0531051663643698	8.55447702477955	0.75
0.75	a billionaire	an orphan	49	torture	1	13	1	unidentified	personal	d	No	9.12467354521909	N/A	-1	0.361050925925926	0.0446969200914356	0.722101851851852	-1	1	FALSE	-0.277898148148148	1	0.26468091480131	8.85999263041778	0.75
0.75	a police officer	a homeless adult	49	torture	1	158	1	unidentified	impersonal	k	Yes	8.12266802334641	N/A	-1	0.607461538461538	0.040542459573963	0.785076923076923	1	1	TRUE	0.214923076923077	1	0.205612396515662	7.91705562683074	0.75
0.75	an elderly person	an olympian	49	torture	1	22	1	strangle	personal	d	No	8.58073121222023	N/A	-1	0.607183333333333	0.022833781939202	0.785633333333333	1	0	TRUE	0.214366666666667	0	-0.0394189482704448	8.62015016049067	0.75
0.75	a mentor	a soldier	49	torture	1	52	1	unidentified	personal	d	No	8.03463103292311	N/A	-1	0.37851724137931	0.0421775322138802	0.757034482758621	-1	1	FALSE	-0.242965517241379	1	-0.14405337440779	8.1786844073309	0.75
0.75	an assassin	a convict	49	torture	1	54	1	unidentified	impersonal	d	No	8.38068594676157	N/A	-1	0.357609375	0.0386939287293386	0.71521875	-1	1	FALSE	-0.28478125	1	0.218901919578188	8.16178402718339	0.75
0.75	a judge	a college student	49	torture	1	32	1	unidentified	personal	k	Yes	8.85922139360813	N/A	-1	0.397530973451327	0.0433535828665788	0.795061946902655	-1	0	FALSE	-0.204938053097345	0	0.435381191756907	8.42384020185122	0.75
0.75	a mentor	a homeless adult	49	torture	1	89	1	strangle	personal	k	Yes	7.53529670244409	N/A	-1	0.606858870967742	0.0425259351580464	0.786282258064516	1	1	TRUE	0.213717741935484	1	-0.454895453081627	7.99019215552572	0.75
0.75	an elderly person	an olympian	49	torture	1	92	1	unidentified	personal	k	Yes	8.44762872803033	N/A	-1	0.607183333333333	0.022833781939202	0.785633333333333	1	1	TRUE	0.214366666666667	1	0.464999554493064	7.98262917353726	0.75
0.75	a mentor	a celebrity	49	torture	1	67	1	strangle	impersonal	k	Yes	8.40603814205008	N/A	-1	0.645977477477477	0.0440638730656479	0.708045045045045	1	1	TRUE	0.291954954954955	1	0.331117099639023	8.07492104241105	0.75
0.75	an olympian	a congressman	49	torture	1	143	1	unidentified	personal	k	Yes	7.64730883235624	N/A	-1	0.611985436893204	0.045951119601792	0.776029126213592	1	1	TRUE	0.223970873786408	1	-0.275256146422033	7.92256497877827	0.75
0.75	an assassin	a terrorist	49	torture	1	124	1	unidentified	personal	k	Yes	8.85295088709958	N/A	-1	0.602088983050847	0.0404094461625986	0.795822033898305	1	1	TRUE	0.204177966101695	1	0.918238394674932	7.93471249242465	0.75
0.75	a homeless adult	an elderly person	49	torture	1	27	1	unidentified	impersonal	k	Yes	8.66733584984596	N/A	-1	0.373831168831169	0.0218255002343462	0.747662337662338	-1	0	FALSE	-0.252337662337662	0	0.15323976484677	8.51409608499919	0.75
0.75	a soldier	an adult	49	torture	1	125	1	unidentified	impersonal	k	Yes	7.82684209815829	N/A	-1	0.645581871345029	0.0215647728910036	0.708836257309942	1	1	TRUE	0.291163742690058	1	-0.107028866135596	7.93387096429389	0.75
0.75	an adult	an orphan	49	torture	1	103	1	unidentified	personal	d	No	8.10530751550515	N/A	-1	0.386423976608187	0.0215436153378055	0.772847953216374	-1	1	FALSE	-0.227152046783626	1	0.144911377528286	7.96039613797686	0.75
0.75	a soldier	a college student	49	torture	1	99	1	unidentified	impersonal	k	Yes	8.16308637558322	N/A	-1	0.614388392857143	0.0445011673894089	0.771223214285714	1	1	TRUE	0.228776785714286	1	0.195501465246378	7.96758491033684	0.75
0.85	a college student	an olympian	49	torture	1	38	1	strangle	impersonal	k	Yes	8.36753241686183	N/A	-1	0.595657407407407	0.0454558336602305	0.808685185185185	1	1	TRUE	0.191314814814815	1	0.0344338887266016	8.33309852813523	0.85
0.85	a nun	a mentor	49	torture	1	90	1	strangle	impersonal	k	Yes	7.57044325205737	N/A	-1	0.400819327731092	0.0443862514609562	0.801638655462185	-1	0	FALSE	-0.198361344537815	0	-0.417146158986156	7.98758941104353	0.85
0.85	an adult	a nun	49	torture	1	28	1	strangle	personal	d	No	8.67965211911394	N/A	-1	0.572360194174757	0.0220239810221652	0.855279611650485	1	0	TRUE	0.144720388349515	0	0.184790245256776	8.49486187385716	0.85
0.85	a homeless adult	a celebrity	49	torture	1	18	1	strangle	impersonal	k	Yes	8.45019832259196	N/A	-1	0.561866379310345	0.0453043414103078	0.87626724137931	1	1	TRUE	0.12373275862069	1	-0.268012444840135	8.71821076743209	0.85
0.85	a homeless adult	a celebrity	49	torture	1	50	1	strangle	impersonal	k	Yes	8.18283871076603	N/A	-1	0.561866379310345	0.0453043414103078	0.87626724137931	1	1	TRUE	0.12373275862069	1	-0.0138724372074854	8.19671114797351	0.85
0.85	a thief	an assassin	49	torture	1	109	1	unidentified	personal	k	Yes	7.67042852219069	N/A	-1	0.554382352941176	0.042748102813547	0.891235294117647	1	1	TRUE	0.108764705882353	1	-0.280782796315111	7.9512113185058	0.85
0.85	an adult	a billionaire	49	torture	1	53	1	unidentified	personal	k	Yes	8.21012440516427	N/A	-1	0.550176528599606	0.022241030543261	0.899646942800789	1	1	TRUE	0.100353057199211	1	0.0400264779303772	8.17009792723389	0.85
0.85	a convict	a gang member	49	torture	1	159	1	unidentified	impersonal	k	Yes	8.35490952835879	N/A	-1	0.561172	0.0420886430034264	0.877656	1	1	TRUE	0.122344	1	0.43813490786288	7.91677462049591	0.85
0.85	a nun	a mentor	49	torture	1	45	1	unidentified	personal	k	Yes	7.75233516330229	N/A	-1	0.400819327731092	0.0443862514609562	0.801638655462185	-1	0	FALSE	-0.198361344537815	0	-0.494875695093246	8.24721085839554	0.85
0.85	a police officer	an orphan	49	torture	1	145	1	unidentified	personal	d	No	7.8808043446749	N/A	-1	0.430239837398374	0.0443935835396375	0.860479674796748	-1	1	FALSE	-0.139520325203252	1	-0.0408633025417764	7.92166764721668	0.85
0.85	a homeless adult	an adult	49	torture	1	132	1	strangle	personal	d	No	8.9440283252606	N/A	-1	0.4205625	0.0209467428451615	0.841125	-1	1	FALSE	-0.158875	1	1.01534570497124	7.92868262028936	0.85
0.85	an elderly person	a billionaire	49	torture	1	41	1	strangle	personal	d	No	8.59378379357795	N/A	-1	0.588131696428571	0.0234935011749927	0.823736607142857	1	0	TRUE	0.176263392857143	0	0.299879470255194	8.29390432332276	0.85
0.85	an astronaut	a police officer	49	torture	1	7	1	unidentified	impersonal	k	Yes	9.36964915446107	N/A	-1	0.44343253968254	0.0437425954725459	0.886865079365079	-1	0	FALSE	-0.113134920634921	0	0.306389936114865	9.0632592183462	0.85
0.85	a thief	an assassin	49	torture	1	65	1	unidentified	impersonal	k	Yes	8.0702808933939	N/A	-1	0.554382352941176	0.042748102813547	0.891235294117647	1	1	TRUE	0.108764705882353	1	-0.01575136740143	8.08603226079533	0.85
0.85	a nun	a celebrity	49	torture	1	79	1	unidentified	impersonal	k	Yes	7.51425465281641	N/A	-1	0.562536036036036	0.0457721863547838	0.874927927927928	1	1	TRUE	0.125072072072072	1	-0.50715163949152	8.02140629230793	0.85
0.85	a judge	a mentor	49	torture	1	40	1	strangle	personal	k	Yes	8.66957087183712	N/A	-1	0.404205128205128	0.0441114848630177	0.808410256410256	-1	0	FALSE	-0.191589743589744	0	0.36302094417985	8.30654992765727	0.85
0.85	a college student	a billionaire	49	torture	1	62	1	strangle	impersonal	k	Yes	8.35537989525363	N/A	-1	0.582429245283019	0.0474197241499993	0.835141509433962	1	1	TRUE	0.164858490566038	1	0.251277016071619	8.10410287918202	0.85
0.85	an olympian	a college student	49	torture	1	11	1	strangle	impersonal	d	No	9.48006211905097	N/A	-1	0.401287037037037	0.0461515542212906	0.802574074074074	-1	1	FALSE	-0.197425925925926	1	0.556635564200958	8.92342655485001	0.85
0.85	an assassin	a gang member	49	torture	1	6	1	strangle	personal	d	No	9.20883924584992	N/A	-1	0.414172268907563	0.0412178029359012	0.828344537815126	-1	1	FALSE	-0.171655462184874	1	0.107710305512205	9.10112894033771	0.85
0.85	an olympian	a police officer	49	torture	1	128	1	strangle	impersonal	k	Yes	7.79852305362521	N/A	-1	0.404512711864407	0.0432869908417065	0.809025423728814	-1	0	FALSE	-0.190974576271186	0	-0.132980248137292	7.9315033017625	0.85
0.85	a pedophile	a terrorist	49	torture	1	48	1	unidentified	personal	k	Yes	8.89836560695536	N/A	-1	0.440367521367521	0.0383846716606021	0.880735042735043	-1	0	FALSE	-0.119264957264957	0	0.682426289238938	8.21593931771642	0.85
0.85	an orphan	a college student	49	torture	1	55	1	strangle	personal	k	Yes	8.61031916940572	N/A	-1	0.568370535714286	0.0457999654895915	0.863258928571428	1	1	TRUE	0.136741071428572	1	0.456585115350894	8.15373405405483	0.85
0.85	a nun	a police officer	49	torture	1	104	1	unidentified	personal	k	Yes	7.52131798019924	N/A	-1	0.400696	0.0432345325961644	0.801392	-1	0	FALSE	-0.198608	0	-0.437421295631075	7.95873927583031	0.85
0.85	a terrorist	a pedophile	49	torture	1	131	1	strangle	impersonal	d	No	8.39004140575575	N/A	-1	0.558465811965812	0.0363940427677428	0.883068376068376	1	0	TRUE	0.116931623931624	0	0.460687362706333	7.92935404304942	0.85
0.85	a mentor	a billionaire	49	torture	1	108	1	unidentified	personal	d	No	7.57763383260273	N/A	-1	0.571495454545455	0.0468856431344092	0.857009090909091	1	0	TRUE	0.142990909090909	0	-0.374987535970442	7.95262136857317	0.85
0.85	an assassin	a gang member	49	torture	1	121	1	unidentified	personal	d	No	8.21121136179302	N/A	-1	0.414172268907563	0.0412178029359012	0.828344537815126	-1	1	FALSE	-0.171655462184874	1	0.273805094633714	7.93740626715931	0.85
0.85	an elderly person	an orphan	49	torture	1	21	1	strangle	impersonal	d	No	8.54752839121231	N/A	-1	0.434670704845815	0.0230024261248523	0.86934140969163	-1	1	FALSE	-0.13065859030837	1	-0.0959636900138747	8.64349208122619	0.85
0.85	an olympian	a celebrity	49	torture	1	142	1	strangle	impersonal	k	Yes	8.17103418920548	N/A	-1	0.570432692307692	0.0463912689894114	0.859134615384615	1	1	TRUE	0.140865384615385	1	0.247998361043954	7.92303582816153	0.85
0.85	an olympian	a mentor	49	torture	1	147	1	unidentified	personal	k	Yes	7.53422832627409	N/A	-1	0.409928571428571	0.0448828597992241	0.819857142857143	-1	0	FALSE	-0.180142857142857	0	-0.3865980571329	7.92082638340699	0.85
0.95	a mentor	a police officer	49	torture	1	86	1	unidentified	personal	d	No	7.85010354517558	N/A	-1	0.491144	0.0424288046905339	0.982288	-1	1	FALSE	-0.017712	1	-0.14842012901315	7.99852367418873	0.95
0.95	a police officer	a mentor	49	torture	1	144	1	strangle	personal	k	Yes	8.33327035325531	N/A	-1	0.509544	0.043187697799735	0.980912	1	1	TRUE	0.019088	1	0.411161276624018	7.92210907663129	0.95
0.95	a police officer	a college student	49	torture	1	74	1	unidentified	personal	d	No	7.81156848934518	N/A	-1	0.501549586776859	0.0444998051383949	0.996900826446281	1	0	TRUE	0.00309917355371903	0	-0.229652534943894	8.04122102428907	0.95
0.95	a rapist	a terrorist	49	torture	1	17	1	unidentified	impersonal	k	Yes	9.17595594511435	N/A	-1	0.467975	0.0393291175571123	0.93595	-1	0	FALSE	-0.06405	0	0.431188235760803	8.74476770935355	0.95
0.95	a pedophile	a rapist	49	torture	1	2	1	strangle	impersonal	k	Yes	9.388319179336	N/A	-1	0.477219512195122	0.0367797561637511	0.954439024390244	-1	0	FALSE	-0.045560975609756	0	0.122881571980002	9.265437607356	0.95
0.95	a judge	a homeless adult	49	torture	1	115	1	unidentified	personal	k	Yes	8.1758290087146	N/A	-1	0.505475409836066	0.0431345159542374	0.989049180327869	1	1	TRUE	0.010950819672131	1	0.232186165785824	7.94364284292877	0.95
0.95	a nun	a judge	49	torture	1	35	1	strangle	impersonal	k	Yes	8.70300863746445	N/A	-1	0.498675213675214	0.0442858134905855	0.997350427350427	-1	0	FALSE	-0.002649572649573	0	0.326733059671314	8.37627557779313	0.95
0.95	an adult	an astronaut	49	torture	1	119	1	unidentified	impersonal	k	Yes	8.45553053102413	N/A	-1	0.516035852713178	0.0229916886955659	0.967928294573643	1	1	TRUE	0.032071705426357	1	0.51617799969958	7.93935253132455	0.95
0.95	a judge	a nun	49	torture	1	1	1	strangle	personal	d	No	9.23493541883156	N/A	-1	0.498893162393162	0.0429607241750498	0.997786324786325	-1	1	FALSE	-0.00221367521367499	1	-0.0750005438099848	9.30993596264155	0.95
0.95	an astronaut	an olympian	49	torture	1	105	1	unidentified	impersonal	d	No	8.53738789870176	N/A	-1	0.549763392857143	0.0453441694302862	0.900473214285714	1	0	TRUE	0.099526785714286	0	0.58025288749772	7.95713501120404	0.95
0.95	an olympian	a judge	49	torture	1	63	1	unidentified	impersonal	k	Yes	8.15536212032814	N/A	-1	0.510509090909091	0.0457228083488151	0.978981818181818	1	1	TRUE	0.021018181818182	1	0.0574781112118483	8.09788400911629	0.95
0.95	a police officer	an adult	49	torture	1	156	1	unidentified	impersonal	k	Yes	8.24354550792826	N/A	-1	0.533297892720306	0.0218652360035228	0.933404214559387	1	1	TRUE	0.066595785440613	1	0.325899927093113	7.91764558083515	0.95
0.95	an astronaut	an olympian	49	torture	1	127	1	unidentified	personal	k	Yes	7.87549929244521	N/A	-1	0.549763392857143	0.0453441694302862	0.900473214285714	1	1	TRUE	0.099526785714286	1	-0.0567679111163661	7.93226720356157	0.95
0.95	a judge	an olympian	49	torture	1	160	1	strangle	impersonal	k	Yes	7.85282781228174	N/A	-1	0.494095454545455	0.0463969997580148	0.988190909090909	-1	0	FALSE	-0.011809090909091	0	-0.0636747224986038	7.91650253478035	0.95
0.95	a billionaire	a judge	49	torture	1	70	1	unidentified	impersonal	k	Yes	7.77904864492556	N/A	-1	0.509238532110092	0.0463011275569812	0.981522935779817	1	1	TRUE	0.018477064220183	1	-0.280493642694966	8.05954228762052	0.95
0.95	a police officer	an adult	49	torture	1	49	1	strangle	impersonal	d	No	8.27103686579295	N/A	-1	0.533297892720306	0.0218652360035228	0.933404214559387	1	0	TRUE	0.066595785440613	0	0.0648666950044916	8.20617017078846	0.95
0.95	a mentor	an adult	49	torture	1	146	1	unidentified	personal	k	Yes	8.02715010683277	N/A	-1	0.525890291262136	0.0212096563044898	0.948219417475728	1	1	TRUE	0.051780582524272	1	0.105909875738998	7.92124023109378	0.95
0.95	a college student	a mentor	49	torture	1	33	1	strangle	impersonal	k	Yes	9.33758957289165	N/A	-1	0.507804347826087	0.043654379553403	0.984391304347826	1	1	TRUE	0.015608695652174	1	0.930118385670294	8.40747118722135	0.95
0.95	an olympian	a billionaire	49	torture	1	58	1	unidentified	personal	k	Yes	8.22523532410167	N/A	-1	0.499907766990291	0.0473841908751137	0.999815533980583	-1	0	FALSE	-0.000184466019417018	0	0.0941500907558463	8.13108523334582	0.95
0.95	an adult	an elderly person	49	torture	1	68	1	strangle	personal	k	Yes	7.99091546309133	N/A	-1	0.450647127784291	0.0167922347803992	0.901294255568581	-1	0	FALSE	-0.098705744431419	0	-0.0787130942609151	8.06962855735224	0.95
0.95	an orphan	a soldier	49	torture	1	39	1	strangle	personal	k	Yes	8.83637393092739	N/A	-1	0.454719298245614	0.0435085573683847	0.909438596491228	-1	0	FALSE	-0.090561403508772	0	0.516763799361803	8.31961013156559	0.95
0.95	a nun	a billionaire	49	torture	1	133	1	unidentified	personal	k	Yes	7.71467747380093	N/A	-1	0.493786363636364	0.0461222034405578	0.987572727272727	-1	0	FALSE	-0.012427272727273	0	-0.213355038218715	7.92803251201964	0.95
0.05	a judge	a pedophile	59	torture	1	71	1	strangle	personal	k	Yes	8.09009578318096	N/A	-1	0.979169491525424	0.0122627728607933	0.0416610169491525	1	1	TRUE	0.958338983050848	1	-0.222787289730793	8.31288307291175	0.05
0.05	a nun	a terrorist	59	torture	1	50	1	strangle	personal	k	Yes	8.64857226947262	N/A	-1	0.963189655172414	0.0160980550277143	0.0736206896551723	1	1	TRUE	0.926379310344828	1	0.21338817709549	8.43518409237713	0.05
0.05	a soldier	a terrorist	59	torture	1	113	1	strangle	impersonal	k	Yes	8.23244015847034	N/A	-1	0.98830701754386	0.00938537363179288	0.0233859649122807	1	1	TRUE	0.976614035087719	1	0.16415912448929	8.06828103398105	0.05
0.05	an elderly person	a rapist	59	torture	1	94	1	strangle	impersonal	k	Yes	8.87010104878573	N/A	-1	0.978935869565217	0.00683391339338584	0.0421282608695652	1	1	TRUE	0.957871739130435	1	0.691166711478877	8.17893433730685	0.05
0.05	a rapist	a soldier	59	torture	1	127	1	unidentified	personal	d	No	7.40000951716269	N/A	-1	0.0112375	0.00894990379061108	0.022475	-1	1	FALSE	-0.977525	1	-0.586737503841446	7.98674702100414	0.05
0.05	an elderly person	a terrorist	59	torture	1	52	1	strangle	impersonal	k	Yes	8.46737249643228	N/A	-1	0.977483480176211	0.00665379425068745	0.0450330396475771	1	1	TRUE	0.954966960352423	1	0.0438361201947102	8.42353637623757	0.05
0.05	a pedophile	a homeless adult	59	torture	1	49	1	strangle	impersonal	d	No	8.54071438645758	N/A	-1	0.021444	0.01225859441931	0.042888	-1	1	FALSE	-0.957112	1	0.0997064360106754	8.44100795044691	0.05
0.05	a pedophile	a homeless adult	59	torture	1	116	1	unidentified	impersonal	d	No	7.11476944836646	N/A	-1	0.021444	0.01225859441931	0.042888	-1	1	FALSE	-0.957112	1	-0.936040011405245	8.05080945977171	0.05
0.05	a pedophile	an astronaut	59	torture	1	36	1	unidentified	personal	d	No	7.85979918056211	N/A	-1	0.0095875	0.00856209105027231	0.0191749999999999	-1	1	FALSE	-0.980825	1	-0.656918924791927	8.51671810535404	0.05
0.05	a pedophile	an olympian	59	torture	1	122	1	unidentified	impersonal	d	No	7.34665516317654	N/A	-1	0.0174513274336283	0.0116698620622071	0.0349026548672566	-1	1	FALSE	-0.965097345132743	1	-0.669211148176494	8.01586631135303	0.05
0.05	a police officer	a pedophile	59	torture	1	123	1	unidentified	impersonal	k	Yes	8.44569718971117	N/A	-1	0.982289682539683	0.0111863788355935	0.035420634920635	1	1	TRUE	0.964579365079365	1	0.435654736427912	8.01004245328325	0.05
0.05	an olympian	a pedophile	59	torture	1	134	1	strangle	personal	k	Yes	8.08147504013705	N/A	-1	0.982867256637168	0.0116200052721805	0.0342654867256638	1	1	TRUE	0.965734513274336	1	0.135495025621368	7.94598001451568	0.05
0.05	a terrorist	a police officer	59	torture	1	83	1	strangle	personal	d	No	7.85748078694253	N/A	-1	0.031219512195122	0.0155155568148436	0.062439024390244	-1	1	FALSE	-0.937560975609756	1	-0.385515989131889	8.24299677607442	0.05
0.05	an orphan	a pedophile	59	torture	1	135	1	strangle	personal	k	Yes	7.94520113241276	N/A	-1	0.994264957264957	0.00645754540069808	0.0114700854700855	1	1	TRUE	0.988529914529914	1	0.00504497596685384	7.9401561564459	0.05
0.05	a terrorist	a soldier	59	torture	1	32	1	unidentified	impersonal	d	No	8.75668242126653	N/A	-1	0.0117061403508772	0.00969717632472512	0.0234122807017544	-1	1	FALSE	-0.976587719298246	1	0.216668883633379	8.54001353763315	0.05
0.05	an orphan	a rapist	59	torture	1	137	1	strangle	personal	k	Yes	7.41457288135059	N/A	-1	0.988283333333333	0.00936128970046156	0.0234333333333334	1	1	TRUE	0.976566666666667	1	-0.513935558955758	7.92850844030635	0.05
0.05	a terrorist	an adult	59	torture	1	112	1	strangle	impersonal	d	No	7.64396194900253	N/A	-1	0.0297992202729045	0.00759090840929752	0.059598440545809	-1	1	FALSE	-0.940401559454191	1	-0.430142943048296	8.07410489205082	0.05
0.05	a terrorist	an astronaut	59	torture	1	119	1	strangle	personal	d	No	7.38585107812521	N/A	-1	0.0207478632478632	0.0127983740075126	0.0414957264957265	-1	1	FALSE	-0.958504273504273	1	-0.647486807437162	8.03333788556237	0.05
0.05	an orphan	an assassin	59	torture	1	138	1	unidentified	impersonal	k	Yes	7.68248244653451	N/A	-1	0.959911016949152	0.0174787465301716	0.080177966101695	1	1	TRUE	0.919822033898305	1	-0.240202135702062	7.92268458223657	0.05
0.15	an astronaut	an assassin	59	torture	1	26	1	strangle	personal	k	Yes	8.97664130672246	N/A	-1	0.938553719008264	0.0208095745564081	0.122892561983471	1	1	TRUE	0.877107438016529	1	0.401684620670628	8.57495668605183	0.15
0.15	a gang member	an orphan	59	torture	1	102	1	strangle	impersonal	d	No	7.67136092319064	N/A	-1	0.0791086956521739	0.0252618550035034	0.158217391304348	-1	1	FALSE	-0.841782608695652	1	-0.460982549557972	8.13234347274862	0.15
0.15	an assassin	an adult	59	torture	1	121	1	strangle	impersonal	k	Yes	7.45182223652793	N/A	-1	0.0754381044487427	0.0112949025612844	0.150876208897486	-1	0	FALSE	-0.849123791102514	0	-0.569867932894883	8.02169016942281	0.15
0.15	a terrorist	a billionaire	59	torture	1	39	1	unidentified	personal	d	No	8.63141433550626	N/A	-1	0.0759537037037037	0.0228196409654396	0.151907407407407	-1	1	FALSE	-0.848092592592593	1	0.132167804361561	8.4992465311447	0.15
0.15	a mentor	a thief	59	torture	1	11	1	strangle	impersonal	k	Yes	8.87933317478603	N/A	-1	0.916283898305085	0.0252897502880333	0.167432203389831	1	1	TRUE	0.832567796610169	1	0.217018617687514	8.66231455709852	0.15
0.15	an assassin	a police officer	59	torture	1	78	1	unidentified	impersonal	d	No	9.22670572606245	N/A	-1	0.0741771653543307	0.0225341617884674	0.148354330708661	-1	1	FALSE	-0.851645669291339	1	0.954589659639132	8.27211606642331	0.15
0.15	an assassin	an adult	59	torture	1	84	1	strangle	impersonal	d	No	7.43602781635185	N/A	-1	0.0754381044487427	0.0112949025612844	0.150876208897486	-1	1	FALSE	-0.849123791102514	1	-0.801145101652791	8.23717291800464	0.15
0.15	a nun	an assassin	59	torture	1	101	1	strangle	impersonal	k	Yes	8.08548677210285	N/A	-1	0.9075125	0.0251324869903276	0.184975	1	1	TRUE	0.815025	1	-0.0526805587155496	8.13816733081839	0.15
0.25	a gang member	an astronaut	59	torture	1	45	1	unidentified	impersonal	d	No	8.37493814383537	N/A	-1	0.11178813559322	0.0276525386929024	0.223576271186441	-1	1	FALSE	-0.776423728813559	1	-0.0893652388906578	8.46430338272602	0.25
0.25	an elderly person	a convict	59	torture	1	27	1	strangle	personal	k	Yes	9.47278155656217	N/A	-1	0.851048387096774	0.0157882628129247	0.297903225806452	1	1	TRUE	0.702096774193548	1	0.90364872858012	8.56913282798205	0.25
0.25	a gang member	an elderly person	59	torture	1	43	1	unidentified	personal	d	No	8.61323037961318	N/A	-1	0.103112087912088	0.0144072456773767	0.206224175824176	-1	1	FALSE	-0.793775824175824	1	0.137279280747597	8.47595109886558	0.25
0.25	a homeless adult	a thief	59	torture	1	64	1	unidentified	personal	d	No	8.89467026298423	N/A	-1	0.871817073170732	0.0287984820705889	0.256365853658536	1	0	TRUE	0.743634146341464	0	0.541020183584011	8.35365007940022	0.25
0.25	a nun	a gang member	59	torture	1	91	1	strangle	impersonal	k	Yes	8.06337782236703	N/A	-1	0.856807692307692	0.0304039835032147	0.286384615384615	1	1	TRUE	0.713615384615385	1	-0.133028089149159	8.19640591151619	0.25
0.25	a celebrity	a terrorist	59	torture	1	115	1	unidentified	impersonal	k	Yes	7.66058546170326	N/A	-1	0.898385321100917	0.0267816782556632	0.203229357798165	1	1	TRUE	0.796770642201835	1	-0.396047856138231	8.05663331784149	0.25
0.25	an orphan	a convict	59	torture	1	55	1	strangle	impersonal	k	Yes	8.07651532755233	N/A	-1	0.881056451612903	0.0279869415236275	0.237887096774194	1	1	TRUE	0.762112903225806	1	-0.329549474475905	8.40606480202823	0.25
0.25	a gang member	a police officer	59	torture	1	18	1	unidentified	impersonal	d	No	8.68067166040871	N/A	-1	0.12129435483871	0.0292017025141736	0.242588709677419	-1	1	FALSE	-0.757411290322581	1	0.0591241097986523	8.62154755061006	0.25
0.25	an addict	a rapist	59	torture	1	141	1	strangle	personal	k	Yes	7.67229245562876	N/A	-1	0.851260504201681	0.0307117931794576	0.297478991596639	1	1	TRUE	0.702521008403361	1	-0.232920552398475	7.90521300802723	0.25
0.25	a gang member	a homeless adult	59	torture	1	14	1	unidentified	impersonal	d	No	9.23610557986221	N/A	-1	0.145397540983607	0.0312454228291551	0.290795081967213	-1	1	FALSE	-0.709204918032787	1	0.591262596973031	8.64484298288918	0.25
0.25	an addict	a pedophile	59	torture	1	51	1	strangle	impersonal	k	Yes	8.25166392360559	N/A	-1	0.875564655172414	0.0276638958685236	0.248870689655172	1	1	TRUE	0.751129310344828	1	-0.177696310701761	8.42936023430735	0.25
0.25	a thief	an olympian	59	torture	1	136	1	strangle	impersonal	d	No	7.62413058566129	N/A	-1	0.117851351351351	0.0292378645289514	0.235702702702703	-1	1	FALSE	-0.764297297297297	1	-0.310201712714837	7.93433229837613	0.25
0.25	an olympian	a gang member	59	torture	1	131	1	strangle	personal	k	Yes	8.68050180902826	N/A	-1	0.862236363636364	0.0312085348957026	0.275527272727273	1	1	TRUE	0.724472727272727	1	0.717050220303239	7.96345158872502	0.25
0.35	an adult	a convict	59	torture	1	38	1	strangle	personal	d	No	8.46125755908593	N/A	-1	0.826812619502868	0.0162798739120549	0.346374760994264	1	0	TRUE	0.653625239005736	0	-0.0438128301285437	8.50507038921448	0.35
0.35	an orphan	an addict	59	torture	1	47	1	unidentified	personal	k	Yes	9.42778773074551	N/A	-1	0.840190265486726	0.0327804726311096	0.319619469026549	1	1	TRUE	0.680380530973451	1	0.975132064159044	8.45265566658647	0.35
0.35	a convict	a mentor	59	torture	1	72	1	unidentified	personal	d	No	9.11910189154191	N/A	-1	0.155755905511811	0.0297470178517351	0.311511811023622	-1	1	FALSE	-0.688488188976378	1	0.812042676699922	8.30705921484199	0.35
0.35	an olympian	a convict	59	torture	1	104	1	unidentified	impersonal	k	Yes	7.94803199063728	N/A	-1	0.8088125	0.0344490694749982	0.382375	1	1	TRUE	0.617625	1	-0.172663765971774	8.12069575660906	0.35
0.35	a convict	a police officer	59	torture	1	25	1	strangle	personal	d	No	7.71912984090673	N/A	-1	0.162706766917293	0.0308313904127783	0.325413533834586	-1	1	FALSE	-0.674586466165414	1	-0.861650703214874	8.58078054412161	0.35
0.35	a billionaire	a thief	59	torture	1	128	1	strangle	impersonal	d	No	8.66853994391076	N/A	-1	0.838752293577982	0.032935155767786	0.322495412844037	1	0	TRUE	0.677504587155963	0	0.687616780976403	7.98092316293436	0.35
0.35	a billionaire	a thief	59	torture	1	106	1	strangle	impersonal	d	No	8.12888014212564	N/A	-1	0.838752293577982	0.032935155767786	0.322495412844037	1	0	TRUE	0.677504587155963	0	0.0198321016561388	8.1090480404695	0.35
0.35	a convict	an astronaut	59	torture	1	99	1	strangle	personal	d	No	8.09040229659332	N/A	-1	0.159448818897638	0.0308319072685685	0.318897637795276	-1	1	FALSE	-0.681102362204724	1	-0.0594127503646332	8.14981504695795	0.35
0.45	a thief	a congressman	59	torture	1	111	1	strangle	personal	d	No	8.12326131912175	N/A	-1	0.234389908256881	0.0391277545325713	0.468779816513762	-1	1	FALSE	-0.531220183486238	1	0.0433325690011416	8.0799287501206	0.45
0.45	a convict	a billionaire	59	torture	1	87	1	unidentified	impersonal	d	No	8.22951111896446	N/A	-1	0.233690677966102	0.0383773479419189	0.467381355932203	-1	1	FALSE	-0.532618644067797	1	0.00980977516915429	8.2197013437953	0.45
0.45	an addict	a college student	59	torture	1	58	1	unidentified	impersonal	d	No	8.03073492409854	N/A	-1	0.207472972972973	0.0385214552824473	0.414945945945946	-1	1	FALSE	-0.585054054054054	1	-0.357858303720356	8.3885932278189	0.45
0.45	a convict	a judge	59	torture	1	13	1	strangle	impersonal	d	No	8.9459841248279	N/A	-1	0.208128	0.0341140936767693	0.416256	-1	1	FALSE	-0.583744	1	0.295317283868942	8.65066684095896	0.45
0.45	a pedophile	a convict	59	torture	1	42	1	unidentified	impersonal	d	No	7.88645727097769	N/A	-1	0.21093359375	0.0320055468356037	0.4218671875	-1	1	FALSE	-0.5781328125	1	-0.595317685957673	8.48177495693536	0.45
0.45	a soldier	a congressman	59	torture	1	142	1	strangle	impersonal	k	Yes	8.36822903827628	N/A	-1	0.769051401869159	0.0393103820482199	0.461897196261682	1	1	TRUE	0.538102803738318	1	0.468839888318828	7.89938914995745	0.45
0.45	an addict	a police officer	59	torture	1	126	1	strangle	impersonal	d	No	9.10697785898103	N/A	-1	0.217590163934426	0.0367103709207507	0.435180327868852	-1	1	FALSE	-0.564819672131148	1	1.11440697990711	7.99257087907392	0.45
0.55	a convict	a celebrity	59	torture	1	105	1	strangle	impersonal	d	No	8.33686963728496	N/A	-1	0.283336134453782	0.039579827557222	0.566672268907563	-1	1	FALSE	-0.433327731092437	1	0.221997738745677	8.11487189853928	0.55
0.55	a soldier	a nun	59	torture	1	118	1	strangle	impersonal	k	Yes	8.22335889947926	N/A	-1	0.706590517241379	0.0430749532593903	0.586818965517241	1	1	TRUE	0.413181034482759	1	0.184197155847108	8.03916174363215	0.55
0.55	a celebrity	a soldier	59	torture	1	132	1	unidentified	personal	d	No	7.57044325205737	N/A	-1	0.255284403669725	0.0416698155177124	0.51056880733945	-1	1	FALSE	-0.48943119266055	1	-0.387184478597868	7.95762773065524	0.55
0.55	a pedophile	a gang member	59	torture	1	21	1	strangle	impersonal	d	No	8.6044711995233	N/A	-1	0.251292372881356	0.0352365931564503	0.502584745762712	-1	1	FALSE	-0.497415254237288	1	0.000395223122574447	8.60407597640072	0.55
0.55	a soldier	a homeless adult	59	torture	1	74	1	strangle	personal	d	No	8.39908510293591	N/A	-1	0.718185950413223	0.0396149993227205	0.563628099173554	1	0	TRUE	0.436371900826446	0	0.103673604233478	8.29541149870243	0.55
0.65	a thief	a rapist	59	torture	1	44	1	unidentified	impersonal	k	Yes	8.59396903021829	N/A	-1	0.68801652892562	0.0381526594429219	0.62396694214876	1	1	TRUE	0.37603305785124	1	0.123841789422484	8.4701272407958	0.65
0.65	a police officer	a congressman	59	torture	1	103	1	strangle	personal	d	No	8.31458729131958	N/A	-1	0.681521551724138	0.0425572533312623	0.636956896551724	1	0	TRUE	0.363043103448276	0	0.188067676640739	8.12651961467884	0.65
0.65	an olympian	an orphan	59	torture	1	96	1	strangle	impersonal	d	No	7.85088266480985	N/A	-1	0.332577981651376	0.0425697262728337	0.665155963302752	-1	1	FALSE	-0.334844036697248	1	-0.316403956357438	8.16728662116729	0.65
0.65	a homeless adult	an orphan	59	torture	1	124	1	unidentified	personal	d	No	8.13827263853019	N/A	-1	0.318070247933884	0.0416380099356624	0.636140495867769	-1	1	FALSE	-0.363859504132231	1	0.13405404331671	8.00421859521347	0.65
0.65	a congressman	an astronaut	59	torture	1	40	1	strangle	impersonal	d	No	8.64453043987743	N/A	-1	0.348622727272727	0.0443666312004843	0.697245454545455	-1	1	FALSE	-0.302754545454545	1	0.151107766802512	8.49342267307492	0.65
0.65	an addict	a billionaire	59	torture	1	80	1	unidentified	personal	d	No	8.25868149626424	N/A	-1	0.306200934579439	0.0432425841359679	0.612401869158879	-1	1	FALSE	-0.387598130841121	1	-0.00178685401951989	8.26046835028376	0.65
0.65	a congressman	a police officer	59	torture	1	133	1	strangle	impersonal	d	No	7.78904040165748	N/A	-1	0.316974137931034	0.0422907920046115	0.633948275862069	-1	1	FALSE	-0.366051724137931	1	-0.162763470927986	7.95180387258546	0.65
0.65	a gang member	an addict	59	torture	1	34	1	strangle	personal	d	No	8.26152644839647	N/A	-1	0.33165350877193	0.0425900919004136	0.66330701754386	-1	1	FALSE	-0.33669298245614	1	-0.266839373097127	8.52836582149359	0.65
0.65	a congressman	a mentor	59	torture	1	31	1	unidentified	personal	d	No	8.62873456614915	N/A	-1	0.318240909090909	0.0448528819202707	0.636481818181818	-1	1	FALSE	-0.363518181818182	1	0.0828971704462129	8.54583739570293	0.65
0.65	an addict	a gang member	59	torture	1	108	1	unidentified	impersonal	k	Yes	8.13505390861157	N/A	-1	0.670052631578947	0.042069616677044	0.659894736842105	1	1	TRUE	0.340105263157895	1	0.0376535842816282	8.09740032432994	0.65
0.75	a homeless adult	a police officer	59	torture	1	57	1	unidentified	impersonal	d	No	9.09200718501432	N/A	-1	0.391988461538462	0.0419186475952108	0.783976923076923	-1	1	FALSE	-0.216023076923077	1	0.697590099125642	8.39441708588867	0.75
0.75	a college student	a homeless adult	59	torture	1	110	1	strangle	personal	d	No	8.70234407522035	N/A	-1	0.614670833333333	0.0412810734638996	0.770658333333333	1	0	TRUE	0.229341666666667	0	0.616591467029968	8.08575260819038	0.75
0.75	a mentor	a homeless adult	59	torture	1	41	1	unidentified	personal	d	No	8.57546209954021	N/A	-1	0.606858870967742	0.0425259351580464	0.786282258064516	1	0	TRUE	0.213717741935484	0	0.0878632845350713	8.48759881500514	0.75
0.75	a celebrity	an astronaut	59	torture	1	67	1	unidentified	personal	d	No	7.70391020961631	N/A	-1	0.387955357142857	0.0451070700620291	0.775910714285714	-1	1	FALSE	-0.224089285714286	1	-0.632268295574573	8.33617850519088	0.75
0.75	a mentor	a soldier	59	torture	1	90	1	unidentified	impersonal	d	No	7.79605797431612	N/A	-1	0.37851724137931	0.0421775322138802	0.757034482758621	-1	1	FALSE	-0.242965517241379	1	-0.406171795269842	8.20222976958597	0.75
0.75	a billionaire	an orphan	59	torture	1	61	1	strangle	personal	d	No	8.27359179819963	N/A	-1	0.361050925925926	0.0446969200914356	0.722101851851852	-1	1	FALSE	-0.277898148148148	1	-0.0975298554099267	8.37112165360956	0.75
0.75	a mentor	a celebrity	59	torture	1	24	1	unidentified	personal	d	No	8.0845624152353	N/A	-1	0.645977477477477	0.0440638730656479	0.708045045045045	1	0	TRUE	0.291954954954955	0	-0.502041986956082	8.58660440219139	0.75
0.75	a congressman	a judge	59	torture	1	35	1	unidentified	personal	d	No	8.21283958467648	N/A	-1	0.394986111111111	0.0462903897818986	0.789972222222222	-1	1	FALSE	-0.210027777777778	1	-0.309702378747332	8.52254196342382	0.75
0.75	a police officer	a nun	59	torture	1	63	1	unidentified	impersonal	k	Yes	8.61232153650781	N/A	-1	0.600452	0.042257465487052	0.799096	1	1	TRUE	0.200904	1	0.252847599037813	8.35947393747	0.75
0.75	an addict	a convict	59	torture	1	100	1	strangle	personal	d	No	8.45595588194505	N/A	-1	0.600772357723577	0.0421141411669793	0.798455284552845	1	0	TRUE	0.201544715447155	0	0.311964693056874	8.14399118888817	0.75
0.75	an elderly person	a judge	59	torture	1	73	1	unidentified	impersonal	d	No	8.40290404501411	N/A	-1	0.617021978021978	0.0227552858537648	0.765956043956044	1	0	TRUE	0.234043956043956	0	0.1016686882419	8.30123535677221	0.75
0.75	an adult	an orphan	59	torture	1	15	1	strangle	personal	d	No	8.57300625623545	N/A	-1	0.386423976608187	0.0215436153378055	0.772847953216374	-1	1	FALSE	-0.227152046783626	1	-0.0660128685839477	8.6390191248194	0.75
0.75	a congressman	a judge	59	torture	1	70	1	unidentified	impersonal	d	No	8.3537326422632	N/A	-1	0.394986111111111	0.0462903897818986	0.789972222222222	-1	1	FALSE	-0.210027777777778	1	0.0350257112816546	8.31870693098155	0.75
0.75	a nun	a college student	59	torture	1	20	1	strangle	personal	d	No	8.38068594676157	N/A	-1	0.391969565217391	0.0453139047779301	0.783939130434783	-1	1	FALSE	-0.216060869565217	1	-0.229213887708929	8.6098998344705	0.75
0.75	a soldier	an adult	59	torture	1	81	1	unidentified	impersonal	k	Yes	9.35461386113261	N/A	-1	0.645581871345029	0.0215647728910036	0.708836257309942	1	1	TRUE	0.291163742690058	1	1.09996936891863	8.25464449221398	0.75
0.75	an orphan	a billionaire	59	torture	1	97	1	strangle	impersonal	k	Yes	8.27817429094374	N/A	-1	0.638277777777778	0.043518749245088	0.723444444444444	1	1	TRUE	0.276555555555556	1	0.116711527846227	8.16146276309751	0.75
0.75	a celebrity	an addict	59	torture	1	77	1	unidentified	personal	d	No	8.01895468315572	N/A	-1	0.637773148148148	0.0438972936513622	0.724453703703704	1	0	TRUE	0.275546296296296	0	-0.258985241337376	8.27793992449309	0.75
0.75	a judge	a college student	59	torture	1	8	1	strangle	personal	d	No	9.15588418618012	N/A	-1	0.397530973451327	0.0433535828665788	0.795061946902655	-1	1	FALSE	-0.204938053097345	1	0.476098054872272	8.67978613130785	0.75
0.85	a billionaire	a celebrity	59	torture	1	60	1	unidentified	personal	d	No	7.94555542825349	N/A	-1	0.563266990291262	0.0485271435013078	0.873466019417476	1	0	TRUE	0.126533980582524	0	-0.431390083425849	8.37694551167934	0.85
0.85	an assassin	a thief	59	torture	1	28	1	unidentified	personal	d	No	7.35819375273303	N/A	-1	0.444852941176471	0.0409184626418575	0.889705882352941	-1	1	FALSE	-0.110294117647059	1	-1.20511521717924	8.56330896991227	0.85
0.85	a gang member	an assassin	59	torture	1	86	1	unidentified	impersonal	k	Yes	9.18901458526143	N/A	-1	0.584478991596639	0.0427941740610303	0.831042016806723	1	1	TRUE	0.168957983193277	1	0.963489383396349	8.22552520186508	0.85
0.85	a nun	a mentor	59	torture	1	82	1	unidentified	impersonal	d	No	8.11761074646623	N/A	-1	0.400819327731092	0.0443862514609562	0.801638655462185	-1	1	FALSE	-0.198361344537815	1	-0.131209887677969	8.2488206341442	0.85
0.85	a nun	a mentor	59	torture	1	46	1	unidentified	impersonal	d	No	8.94871583384369	N/A	-1	0.400819327731092	0.0443862514609562	0.801638655462185	-1	1	FALSE	-0.198361344537815	1	0.490236309187445	8.45847952465625	0.85
0.85	a mentor	an orphan	59	torture	1	125	1	unidentified	impersonal	d	No	7.63916117165917	N/A	-1	0.417771551724138	0.0450843264330339	0.835543103448276	-1	1	FALSE	-0.164456896551724	1	-0.359233565484523	7.9983947371437	0.85
0.85	an adult	an olympian	59	torture	1	22	1	unidentified	personal	d	No	8.41316512099219	N/A	-1	0.558233267716535	0.0216539413168681	0.883533464566929	1	0	TRUE	0.116466535433071	0	-0.185086997338754	8.59825211833094	0.85
0.85	a judge	a police officer	59	torture	1	23	1	unidentified	impersonal	d	No	8.1758290087146	N/A	-1	0.401762096774194	0.0420117530661877	0.803524193548387	-1	1	FALSE	-0.196475806451613	1	-0.416599251546568	8.59242826026117	0.85
0.85	a celebrity	a nun	59	torture	1	79	1	strangle	personal	d	No	8.14206328310415	N/A	-1	0.435545045045045	0.0446886674842809	0.87109009009009	-1	1	FALSE	-0.12890990990991	1	-0.124228925249388	8.26629220835354	0.85
0.85	an adult	a judge	59	torture	1	12	1	unidentified	personal	d	No	7.45298232946546	N/A	-1	0.57052140077821	0.0218796330743975	0.85895719844358	1	0	TRUE	0.14104280155642	0	-1.20350836956328	8.65649069902874	0.85
0.85	a nun	an astronaut	59	torture	1	107	1	strangle	impersonal	d	No	8.3696208269491	N/A	-1	0.44018487394958	0.0432594207752658	0.88036974789916	-1	1	FALSE	-0.11963025210084	1	0.266396644549382	8.10322418239972	0.85
0.85	a celebrity	an olympian	59	torture	1	139	1	unidentified	impersonal	d	No	7.37588214821501	N/A	-1	0.430105769230769	0.0468496024676372	0.860211538461538	-1	1	FALSE	-0.139788461538462	1	-0.540978575951776	7.91686072416679	0.85
0.85	an astronaut	an elderly person	59	torture	1	9	1	strangle	personal	d	No	9.3200912359353	N/A	-1	0.434710065645514	0.0224801556406456	0.869420131291028	-1	1	FALSE	-0.130579868708972	1	0.646128962697229	8.67396227323807	0.85
0.85	an olympian	a police officer	59	torture	1	48	1	unidentified	personal	d	No	8.25035895147729	N/A	-1	0.404512711864407	0.0432869908417065	0.809025423728814	-1	1	FALSE	-0.190974576271186	1	-0.196472857039394	8.44683180851669	0.85
0.85	an adult	a homeless adult	59	torture	1	93	1	unidentified	impersonal	k	Yes	9.58100697454165	N/A	-1	0.579345192307692	0.0217520190180007	0.841309615384615	1	1	TRUE	0.158690384615385	1	1.39624877916502	8.18475819537663	0.85
0.85	a thief	a convict	59	torture	1	53	1	strangle	personal	d	No	8.06369263426952	N/A	-1	0.409880952380952	0.0414291980006625	0.819761904761905	-1	1	FALSE	-0.180238095238095	1	-0.354019883898275	8.41771251816779	0.85
0.85	a mentor	a judge	59	torture	1	85	1	unidentified	personal	d	No	8.23827262463303	N/A	-1	0.594055555555556	0.0445165897084123	0.811888888888889	1	0	TRUE	0.188111111111111	0	0.00692356469816955	8.23134905993486	0.85
0.85	a police officer	an orphan	59	torture	1	37	1	strangle	impersonal	d	No	8.00001409367807	N/A	-1	0.430239837398374	0.0443935835396375	0.860479674796748	-1	1	FALSE	-0.139520325203252	1	-0.510880153606186	8.51089424728426	0.85
0.85	a judge	an astronaut	59	torture	1	65	1	strangle	impersonal	d	No	7.94378269245863	N/A	-1	0.4485	0.0446577523007099	0.897	-1	1	FALSE	-0.103	1	-0.404043528871817	8.34782622133044	0.85
0.85	a mentor	an orphan	59	torture	1	30	1	strangle	personal	d	No	8.0149968943483	N/A	-1	0.417771551724138	0.0450843264330339	0.835543103448276	-1	1	FALSE	-0.164456896551724	1	-0.536664359424409	8.55166125377271	0.85
0.95	a gang member	a thief	59	torture	1	117	1	strangle	personal	d	No	7.64587582518481	N/A	-1	0.530366379310345	0.043122638845231	0.93926724137931	1	0	TRUE	0.06073275862069	0	-0.399109776517116	8.04498560170193	0.95
0.95	a mentor	an elderly person	59	torture	1	109	1	unidentified	personal	d	No	8.24852912480022	N/A	-1	0.47729102844639	0.0229566117265094	0.954582056892779	-1	1	FALSE	-0.045417943107221	1	0.156952658540056	8.09157646626016	0.95
0.95	a billionaire	an astronaut	59	torture	1	76	1	unidentified	personal	d	No	7.92371033396924	N/A	-1	0.459427927927928	0.0466023559847894	0.918855855855856	-1	1	FALSE	-0.081144144144144	1	-0.360053448593635	8.28376378256287	0.95
0.95	a homeless adult	an olympian	59	torture	1	56	1	strangle	impersonal	d	No	8.86897618927454	N/A	-1	0.486226495726496	0.0457763948144834	0.972452991452991	-1	1	FALSE	-0.027547008547009	1	0.468735245316088	8.40024094395845	0.95
0.95	a police officer	an adult	59	torture	1	10	1	unidentified	personal	d	No	9.09627541568821	N/A	-1	0.533297892720306	0.0218652360035228	0.933404214559387	1	0	TRUE	0.066595785440613	0	0.428137000519916	8.66813841516829	0.95
0.95	a mentor	a police officer	59	torture	1	92	1	strangle	personal	d	No	8.12385426310591	N/A	-1	0.491144	0.0424288046905339	0.982288	-1	1	FALSE	-0.017712	1	-0.0667277903404931	8.19058205344641	0.95
0.95	a police officer	a mentor	59	torture	1	130	1	unidentified	impersonal	d	No	8.91931939825889	N/A	-1	0.509544	0.043187697799735	0.980912	1	0	TRUE	0.019088	0	0.950043951464086	7.9692754467948	0.95
0.95	a judge	a nun	59	torture	1	98	1	strangle	impersonal	k	Yes	8.36799688505411	N/A	-1	0.498893162393162	0.0429607241750498	0.997786324786325	-1	0	FALSE	-0.00221367521367499	0	0.212357980026378	8.15563890502773	0.95
0.95	an adult	a mentor	59	torture	1	140	1	strangle	personal	d	No	7.56631101477246	N/A	-1	0.474681553398058	0.0225124171513502	0.949363106796116	-1	1	FALSE	-0.050636893203884	1	-0.344725851324547	7.91103686609701	0.95
0.95	a judge	an olympian	59	torture	1	29	1	unidentified	personal	d	No	8.33854487998858	N/A	-1	0.494095454545455	0.0463969997580148	0.988190909090909	-1	1	FALSE	-0.011809090909091	1	-0.218940231853912	8.55748511184249	0.95
0.95	a homeless adult	an olympian	59	torture	1	62	1	unidentified	personal	d	No	8.12474302038557	N/A	-1	0.486226495726496	0.0457763948144834	0.972452991452991	-1	1	FALSE	-0.027547008547009	1	-0.240554775154212	8.36529779553978	0.95
0.95	an adult	a mentor	59	torture	1	95	1	unidentified	impersonal	d	No	7.81035268372429	N/A	-1	0.474681553398058	0.0225124171513502	0.949363106796116	-1	1	FALSE	-0.050636893203884	1	-0.36275779551278	8.17311047923707	0.95
0.95	a college student	a police officer	59	torture	1	59	1	unidentified	personal	d	No	8.80252249828442	N/A	-1	0.498227272727273	0.0437855178913508	0.996454545454545	-1	1	FALSE	-0.00354545454545496	1	0.419753128535304	8.38276936974912	0.95
0.95	an adult	a police officer	59	torture	1	68	1	unidentified	personal	d	No	7.80710329012598	N/A	-1	0.466608237547893	0.0226698018771672	0.933216475095785	-1	1	FALSE	-0.066783524904215	1	-0.523251356995125	8.3303546471211	0.95
0.95	a thief	a gang member	59	torture	1	89	1	unidentified	personal	d	No	8.13094230223188	N/A	-1	0.473413793103448	0.0435720139437568	0.946827586206897	-1	1	FALSE	-0.053172413793103	1	-0.0771113254238662	8.20805362765574	0.95
0.95	a mentor	a college student	59	torture	1	120	1	strangle	personal	d	No	7.91278922069068	N/A	-1	0.490582608695652	0.0448738974498919	0.981165217391304	-1	1	FALSE	-0.018834782608696	1	-0.114724806801911	8.02751402749259	0.95
0.95	a homeless adult	a judge	59	torture	1	16	1	strangle	personal	k	Yes	8.80612448326845	N/A	-1	0.493975409836066	0.0451088303430355	0.987950819672131	-1	0	FALSE	-0.0120491803278689	0	0.172929216518831	8.63319526674962	0.95
0.95	an adult	an elderly person	59	torture	1	75	1	unidentified	personal	d	No	9.28182347359805	N/A	-1	0.450647127784291	0.0167922347803992	0.901294255568581	-1	1	FALSE	-0.098705744431419	1	0.992235832965396	8.28958764063265	0.95
0.95	an astronaut	an adult	59	torture	1	17	1	strangle	personal	d	No	8.89795568688403	N/A	-1	0.483979651162791	0.0222179303805643	0.967959302325581	-1	1	FALSE	-0.032040697674419	1	0.27058427820419	8.62737140867984	0.95
0.95	a homeless adult	a billionaire	59	torture	1	19	1	unidentified	impersonal	k	Yes	8.40200678160712	N/A	-1	0.489747826086956	0.0462873361637257	0.979495652173913	-1	0	FALSE	-0.020504347826087	0	-0.213716910933161	8.61572369254028	0.95
0.95	a nun	a billionaire	59	torture	1	129	1	unidentified	personal	d	No	8.1146238864201	N/A	-1	0.493786363636364	0.0461222034405578	0.987572727272727	-1	1	FALSE	-0.012427272727273	1	0.139524581555518	7.97509930486458	0.95
0.05	a pedophile	a mentor	54	torture	2	28	1	unidentified	personal	k	No	8.23695004806146	N/A	-1	0.0093125	0.00795759423097422	0.018625	-1	1	FALSE	-0.981375	1	-0.516810008609911	8.75376005667137	0.05
0.05	a judge	a pedophile	54	torture	2	29	1	strangle	impersonal	d	Yes	8.65851912750667	N/A	-1	0.979169491525424	0.0122627728607933	0.0416610169491525	1	1	TRUE	0.958338983050848	1	-0.0884213653056829	8.74694049281235	0.05
0.05	a rapist	a judge	54	torture	2	94	1	strangle	personal	k	No	8.3291754420774	N/A	-1	0.0381859504132231	0.0163672921492369	0.0763719008264463	-1	1	FALSE	-0.923628099173554	1	-0.339829641782332	8.66900508385973	0.05
0.05	a pedophile	an orphan	54	torture	2	73	1	unidentified	impersonal	k	No	9.00528228820836	N/A	-1	0.00585897435897436	0.00640684611080701	0.0117179487179487	-1	1	FALSE	-0.988282051282051	1	0.33463688604421	8.67064540216415	0.05
0.05	a pedophile	a nun	54	torture	2	126	1	unidentified	impersonal	k	No	8.76981787205262	N/A	-1	0.017125	0.0110718619840775	0.03425	-1	1	FALSE	-0.96575	1	0.101132353945284	8.66868551810733	0.05
0.05	a nun	a rapist	54	torture	2	68	1	strangle	impersonal	d	Yes	8.5179928715868	N/A	-1	0.965397540983607	0.0154508544396508	0.069204918032787	1	1	TRUE	0.930795081967213	1	-0.153680816393194	8.67167368798	0.05
0.05	a pedophile	a police officer	54	torture	2	79	1	strangle	personal	k	No	8.40581460343285	N/A	-1	0.0180753968253968	0.0115635400436319	0.0361507936507937	-1	1	FALSE	-0.963849206349206	1	-0.264048891951415	8.66986349538426	0.05
0.05	a mentor	a pedophile	54	torture	2	98	1	strangle	personal	d	Yes	8.24038511551633	N/A	-1	0.990616666666667	0.00836299359584272	0.0187666666666666	1	1	TRUE	0.981233333333333	1	-0.428522468487344	8.66890758400368	0.05
0.05	an elderly person	a rapist	54	torture	2	4	1	unidentified	impersonal	d	Yes	9.08307502093031	N/A	-1	0.978935869565217	0.00683391339338584	0.0421282608695652	1	1	TRUE	0.957871739130435	1	-0.217374432932361	9.30044945386267	0.05
0.05	a pedophile	a police officer	54	torture	2	57	1	strangle	personal	k	No	8.41847721847708	N/A	-1	0.0180753968253968	0.0115635400436319	0.0361507936507937	-1	1	FALSE	-0.963849206349206	1	-0.25773351309395	8.67621073157103	0.05
0.05	an assassin	a soldier	54	torture	2	103	1	unidentified	personal	k	No	8.77276520994979	N/A	-1	0.0362330508474576	0.0163211160327854	0.0724661016949153	-1	1	FALSE	-0.927533898305085	1	0.103941533422699	8.66882367652709	0.05
0.05	a rapist	an adult	54	torture	2	80	1	strangle	impersonal	k	No	9.03503415007613	N/A	-1	0.0272292870905588	0.00700930707365197	0.0544585741811175	-1	1	FALSE	-0.945541425818882	1	0.365266954226064	8.66976719585007	0.05
0.05	a pedophile	an elderly person	54	torture	2	47	1	strangle	impersonal	k	No	8.20494516501921	N/A	-1	0.0111189956331878	0.00477236400907035	0.0222379912663755	-1	1	FALSE	-0.977762008733625	1	-0.481120912049613	8.68606607706882	0.05
0.05	a pedophile	an elderly person	54	torture	2	27	1	strangle	impersonal	k	No	8.64699262895108	N/A	-1	0.0111189956331878	0.00477236400907035	0.0222379912663755	-1	1	FALSE	-0.977762008733625	1	-0.114181105504821	8.7611737344559	0.05
0.05	a rapist	an astronaut	54	torture	2	21	1	strangle	personal	k	No	8.60666819784384	N/A	-1	0.0194024390243902	0.0115288985564689	0.0388048780487805	-1	1	FALSE	-0.96119512195122	1	-0.214701102168393	8.82136930001223	0.05
0.05	a college student	a rapist	54	torture	2	51	1	unidentified	personal	d	Yes	8.03333401588006	N/A	-1	0.981686440677966	0.0112262831617515	0.0366271186440679	1	1	TRUE	0.963372881355932	1	-0.647788636024734	8.6811226519048	0.05
0.05	a police officer	a terrorist	54	torture	2	117	1	strangle	impersonal	d	Yes	9.2881343994162	N/A	-1	0.968052845528455	0.0151058397911192	0.0638943089430895	1	1	TRUE	0.93610569105691	1	0.619422318047473	8.66871208136873	0.05
0.05	a terrorist	a judge	54	torture	2	63	1	unidentified	personal	k	No	8.53601494565683	N/A	-1	0.041604347826087	0.0169020034110518	0.0832086956521739	-1	1	FALSE	-0.916791304347826	1	-0.13722008911774	8.67323503477457	0.05
0.05	an astronaut	a terrorist	54	torture	2	61	1	unidentified	personal	d	Yes	8.14002395246292	N/A	-1	0.977807692307692	0.0125238754666839	0.0443846153846155	1	1	TRUE	0.955615384615385	1	-0.534042620527289	8.67406657299021	0.05
0.05	a terrorist	a nun	54	torture	2	78	1	unidentified	personal	k	No	8.89109883061664	N/A	-1	0.036875	0.0166537260333573	0.07375	-1	1	FALSE	-0.92625	1	0.221130646174235	8.6699681844424	0.05
0.05	a terrorist	a nun	54	torture	2	112	1	strangle	impersonal	k	No	9.08443695508703	N/A	-1	0.036875	0.0166537260333573	0.07375	-1	1	FALSE	-0.92625	1	0.415698816912615	8.66873813817441	0.05
0.05	a terrorist	a police officer	54	torture	2	106	1	unidentified	impersonal	k	No	8.68845380085077	N/A	-1	0.031219512195122	0.0155155568148436	0.062439024390244	-1	1	FALSE	-0.937560975609756	1	0.0196660022463622	8.66878779860441	0.05
0.15	a celebrity	a pedophile	54	torture	2	43	1	strangle	personal	d	Yes	8.17835816560584	N/A	-1	0.927348214285714	0.0219073216957627	0.145303571428572	1	1	TRUE	0.854696428571428	1	-0.514612477515	8.69297064312084	0.15
0.15	a thief	an astronaut	54	torture	2	99	1	strangle	impersonal	k	No	8.05165955684195	N/A	-1	0.0938940677966102	0.025689457166024	0.18778813559322	-1	1	FALSE	-0.81221186440678	1	-0.617228332017319	8.66888788885927	0.15
0.15	a college student	a gang member	54	torture	2	71	1	strangle	impersonal	d	Yes	7.82084087990734	N/A	-1	0.900190265486726	0.027406178857312	0.199619469026549	1	1	TRUE	0.800380530973451	1	-0.850165193196728	8.67100607310407	0.15
0.15	a gang member	an orphan	54	torture	2	124	1	unidentified	personal	k	No	8.6557370008643	N/A	-1	0.0791086956521739	0.0252618550035034	0.158217391304348	-1	1	FALSE	-0.841782608695652	1	-0.0129528267196193	8.66868982758392	0.15
0.15	a thief	a college student	54	torture	2	56	1	unidentified	personal	k	No	8.56101867095627	N/A	-1	0.0822456140350877	0.0249749493302118	0.164491228070175	-1	1	FALSE	-0.835508771929825	1	-0.115849714860282	8.67686838581655	0.15
0.15	an orphan	a thief	54	torture	2	104	1	strangle	personal	d	Yes	8.25062008217469	N/A	-1	0.940717391304348	0.0203818698628664	0.118565217391304	1	1	TRUE	0.881434782608696	1	-0.418190623347041	8.66881070552173	0.15
0.15	an assassin	a police officer	54	torture	2	116	1	strangle	personal	k	No	9.05473863988161	N/A	-1	0.0741771653543307	0.0225341617884674	0.148354330708661	-1	1	FALSE	-0.851645669291339	1	0.386022179550052	8.66871646033156	0.15
0.15	an orphan	a thief	54	torture	2	81	1	unidentified	impersonal	d	Yes	8.51458980554612	N/A	-1	0.940717391304348	0.0203818698628664	0.118565217391304	1	1	TRUE	0.881434782608696	1	-0.155088807977858	8.66967861352398	0.15
0.15	a thief	an elderly person	54	torture	2	17	1	strangle	impersonal	k	No	8.79118193673602	N/A	-1	0.0806984649122807	0.0127074250721736	0.161396929824561	-1	1	FALSE	-0.838603070175439	1	-0.0907690204110807	8.8819509571471	0.15
0.15	a gang member	a college student	54	torture	2	53	1	strangle	personal	k	No	8.39162996844089	N/A	-1	0.0992699115044248	0.0273557261739299	0.19853982300885	-1	1	FALSE	-0.80146017699115	1	-0.28757554590848	8.67920551434937	0.15
0.15	an assassin	an adult	54	torture	2	88	1	strangle	impersonal	k	No	8.60355435706428	N/A	-1	0.0754381044487427	0.0112949025612844	0.150876208897486	-1	1	FALSE	-0.849123791102514	1	-0.0656740831879254	8.66922844025221	0.15
0.15	a billionaire	a rapist	54	torture	2	96	1	unidentified	personal	k	No	8.43119947824926	N/A	-1	0.931241228070175	0.0212418973775859	0.137517543859649	1	0	TRUE	0.862482456140351	0	-0.23775279299085	8.66895227124011	0.15
0.15	an olympian	an assassin	54	torture	2	97	1	unidentified	personal	d	Yes	8.82202732268558	N/A	-1	0.91283185840708	0.0256345438261588	0.174336283185841	1	1	TRUE	0.825663716814159	1	0.153098327715227	8.66892899497036	0.15
0.15	a pedophile	a billionaire	54	torture	2	1	1	unidentified	personal	k	No	9.35227386786485	N/A	-1	0.0532387387387387	0.0195731580578257	0.106477477477477	-1	1	FALSE	-0.893522522522523	1	-0.128100837230043	9.48037470509489	0.15
0.15	an assassin	an astronaut	54	torture	2	76	1	strangle	impersonal	k	No	9.33291192436436	N/A	-1	0.0618181818181818	0.0208822623498328	0.123636363636364	-1	1	FALSE	-0.876363636363636	1	0.662706206010212	8.67020571835415	0.15
0.15	an assassin	an elderly person	54	torture	2	119	1	strangle	personal	k	No	8.54090971803355	N/A	-1	0.0602434497816594	0.0109616081870811	0.120486899563319	-1	1	FALSE	-0.879513100436681	1	-0.127794630045681	8.66870434807923	0.15
0.15	a terrorist	a billionaire	54	torture	2	67	1	strangle	personal	k	No	8.22790983759748	N/A	-1	0.0759537037037037	0.0228196409654396	0.151907407407407	-1	1	FALSE	-0.848092592592593	1	-0.444026241700099	8.67193607929758	0.15
0.25	a convict	an elderly person	54	torture	2	69	1	strangle	personal	k	No	9.06067959742178	N/A	-1	0.148623655913978	0.0166557555521019	0.297247311827957	-1	1	FALSE	-0.702752688172043	1	0.389247273363754	8.67143232405802	0.25
0.25	an adult	a gang member	54	torture	2	122	1	strangle	personal	d	Yes	8.87066300440602	N/A	-1	0.877899805447471	0.0142324751036477	0.244200389105058	1	1	TRUE	0.755799610894942	1	0.201968083762749	8.66869492064327	0.25
0.25	a gang member	an elderly person	54	torture	2	35	1	unidentified	personal	k	No	8.54636356871602	N/A	-1	0.103112087912088	0.0144072456773767	0.206224175824176	-1	1	FALSE	-0.793775824175824	1	-0.169720353996246	8.71608392271226	0.25
0.25	a homeless adult	a thief	54	torture	2	85	1	strangle	personal	d	Yes	8.65451738227946	N/A	-1	0.871817073170732	0.0287984820705889	0.256365853658536	1	1	TRUE	0.743634146341464	1	-0.014872425149397	8.66938980742885	0.25
0.25	an assassin	a billionaire	54	torture	2	26	1	unidentified	impersonal	k	No	8.15392513200786	N/A	-1	0.133732142857143	0.0306196329855383	0.267464285714286	-1	1	FALSE	-0.732535714285714	1	-0.615308152798953	8.76923328480681	0.25
0.25	a gang member	a nun	54	torture	2	25	1	unidentified	personal	k	No	8.24249315318763	N/A	-1	0.143264957264957	0.0317019292386593	0.286529914529914	-1	1	FALSE	-0.713470085470086	1	-0.535501822340942	8.77799497552857	0.25
0.25	a soldier	a convict	54	torture	2	37	1	unidentified	personal	d	Yes	8.46400336290212	N/A	-1	0.891282258064516	0.0270057188089954	0.217435483870968	1	1	TRUE	0.782564516129032	1	-0.244784523723986	8.7087878866261	0.25
0.25	a gang member	an olympian	54	torture	2	7	1	unidentified	personal	k	No	8.9617507993305	N/A	-1	0.136704545454545	0.0326865548742482	0.273409090909091	-1	1	FALSE	-0.726590909090909	1	-0.198655850056063	9.16040664938656	0.25
0.25	a gang member	a police officer	54	torture	2	64	1	strangle	impersonal	k	No	8.27715777243181	N/A	-1	0.12129435483871	0.0292017025141736	0.242588709677419	-1	1	FALSE	-0.757411290322581	1	-0.395710775924202	8.67286854835601	0.25
0.25	an addict	a pedophile	54	torture	2	114	1	unidentified	impersonal	d	Yes	8.61141186665522	N/A	-1	0.875564655172414	0.0276638958685236	0.248870689655172	1	1	TRUE	0.751129310344828	1	-0.0573145293103821	8.6687263959656	0.25
0.25	a nun	a thief	54	torture	2	86	1	strangle	impersonal	d	Yes	9.52120171737537	N/A	-1	0.878741525423729	0.0291270220389662	0.242516949152542	1	1	TRUE	0.757483050847458	1	0.851870249291604	8.66933146808377	0.25
0.25	a thief	an olympian	54	torture	2	110	1	unidentified	personal	k	No	8.57678198282789	N/A	-1	0.117851351351351	0.0292378645289514	0.235702702702703	-1	1	FALSE	-0.764297297297297	1	-0.0919700326156647	8.66875201544356	0.25
0.25	a congressman	a rapist	54	torture	2	62	1	strangle	personal	d	Yes	8.3197173868506	N/A	-1	0.890438053097345	0.0267596533601807	0.21912389380531	1	1	TRUE	0.78087610619469	1	-0.353916062291173	8.67363344914178	0.25
0.25	an addict	a rapist	54	torture	2	120	1	unidentified	impersonal	d	Yes	8.46947245520483	N/A	-1	0.851260504201681	0.0307117931794576	0.297478991596639	1	1	TRUE	0.702521008403361	1	-0.199228484557727	8.66870093976255	0.25
0.35	an addict	a terrorist	54	torture	2	77	1	unidentified	personal	d	Yes	9.46249888835892	N/A	-1	0.834898230088496	0.0341260652496172	0.330203539823009	1	1	TRUE	0.669796460176991	1	0.792416894447076	8.67008199391184	0.35
0.35	an orphan	an addict	54	torture	2	33	1	strangle	impersonal	d	Yes	8.40536737623398	N/A	-1	0.840190265486726	0.0327804726311096	0.319619469026549	1	1	TRUE	0.680380530973451	1	-0.319339204967029	8.72470658120101	0.35
0.35	a celebrity	an assassin	54	torture	2	16	1	unidentified	personal	d	Yes	9.13841463240459	N/A	-1	0.836721238938053	0.033063205274072	0.326557522123894	1	1	TRUE	0.673442477876106	1	0.237882127991423	8.90053250441317	0.35
0.35	a police officer	a convict	54	torture	2	13	1	strangle	impersonal	d	Yes	8.8737481281544	N/A	-1	0.835387218045113	0.0308511220968865	0.329225563909775	1	1	TRUE	0.670774436090225	1	-0.092818260469647	8.96656638862404	0.35
0.35	a rapist	an addict	54	torture	2	24	1	strangle	personal	k	No	8.94259163723185	N/A	-1	0.15131512605042	0.0316516759225245	0.30263025210084	-1	1	FALSE	-0.69736974789916	1	0.155071660808536	8.78751997642332	0.35
0.45	a pedophile	a convict	54	torture	2	107	1	unidentified	impersonal	k	No	8.56978564153541	N/A	-1	0.21093359375	0.0320055468356037	0.4218671875	-1	1	FALSE	-0.5781328125	1	-0.0989920612322326	8.66877770276764	0.45
0.45	an addict	a mentor	54	torture	2	6	1	unidentified	impersonal	k	No	9.4511666581427	N/A	-1	0.214478260869565	0.0352390676154231	0.42895652173913	-1	1	FALSE	-0.57104347826087	1	0.247919666085863	9.20324699205684	0.45
0.45	a convict	a rapist	54	torture	2	92	1	unidentified	impersonal	d	Yes	9.21512888870798	N/A	-1	0.761580769230769	0.034302954015546	0.476838461538462	1	1	TRUE	0.523161538461538	1	0.546061389424647	8.66906749928333	0.45
0.45	a convict	a rapist	54	torture	2	100	1	unidentified	personal	k	No	8.40065937516029	N/A	-1	0.761580769230769	0.034302954015546	0.476838461538462	1	0	TRUE	0.523161538461538	0	-0.268210396875071	8.66886977203536	0.45
0.45	an addict	an adult	54	torture	2	12	1	unidentified	impersonal	k	No	8.98907006504365	N/A	-1	0.2311025390625	0.0185300473944763	0.462205078125	-1	1	FALSE	-0.537794921875	1	-0.00344948686094781	8.9925195519046	0.45
0.45	a soldier	a congressman	54	torture	2	58	1	strangle	personal	d	Yes	8.57941653459637	N/A	-1	0.769051401869159	0.0393103820482199	0.461897196261682	1	1	TRUE	0.538102803738318	1	-0.0961892455248101	8.67560578012118	0.45
0.45	a gang member	a celebrity	54	torture	2	91	1	strangle	impersonal	k	No	8.9278448262117	N/A	-1	0.222959090909091	0.0391100459055222	0.445918181818182	-1	1	FALSE	-0.554081818181818	1	0.258741984294431	8.66910284191727	0.45
0.45	an addict	a police officer	54	torture	2	111	1	strangle	impersonal	k	No	8.49146504284351	N/A	-1	0.217590163934426	0.0367103709207507	0.435180327868852	-1	1	FALSE	-0.564819672131148	1	-0.177279744337893	8.6687447871814	0.45
0.45	a congressman	a thief	54	torture	2	41	1	strangle	impersonal	d	Yes	8.34283980427146	N/A	-1	0.765362385321101	0.0384923925965163	0.469275229357798	1	1	TRUE	0.530724770642202	1	-0.35455085988661	8.69739066415807	0.45
0.55	a pedophile	a thief	54	torture	2	40	1	unidentified	personal	k	No	8.60079877527103	N/A	-1	0.281857142857143	0.0354942899591781	0.563714285714286	-1	1	FALSE	-0.436285714285714	1	-0.0990947187408242	8.69989349401186	0.55
0.55	a celebrity	a convict	54	torture	2	42	1	unidentified	personal	d	Yes	8.48322267184508	N/A	-1	0.719596638655462	0.0401311162118697	0.560806722689076	1	1	TRUE	0.439193277310924	1	-0.211865733095333	8.69508840494042	0.55
0.55	a soldier	a celebrity	54	torture	2	115	1	strangle	personal	d	Yes	8.5650305208304	N/A	-1	0.742857798165138	0.0417704995568762	0.514284403669725	1	1	TRUE	0.485715596330275	1	-0.10369069995507	8.66872122078547	0.55
0.55	an assassin	an addict	54	torture	2	23	1	unidentified	personal	k	No	8.22897764335831	N/A	-1	0.257594017094017	0.0397575616057216	0.515188034188034	-1	1	FALSE	-0.484811965811966	1	-0.568897142989947	8.79787478634826	0.55
0.55	a terrorist	a convict	54	torture	2	93	1	unidentified	impersonal	k	No	8.35349709874545	N/A	-1	0.261681451612903	0.0368456367970075	0.523362903225806	-1	1	FALSE	-0.476637096774194	1	-0.315537890175808	8.66903498892126	0.55
0.55	a judge	a soldier	54	torture	2	22	1	unidentified	impersonal	d	Yes	9.04958459309679	N/A	-1	0.29375652173913	0.0416024622702352	0.587513043478261	-1	0	FALSE	-0.412486956521739	0	0.240452895618906	8.80913169747788	0.55
0.55	a soldier	an olympian	54	torture	2	131	1	strangle	impersonal	d	Yes	8.31922993863233	N/A	-1	0.708211009174312	0.0425078087786975	0.583577981651376	1	1	TRUE	0.416422018348624	1	-0.349447487739326	8.66867742637165	0.55
0.55	a terrorist	a convict	54	torture	2	102	1	unidentified	personal	k	No	8.56254889313703	N/A	-1	0.261681451612903	0.0368456367970075	0.523362903225806	-1	1	FALSE	-0.476637096774194	1	-0.106288884417074	8.66883777755411	0.55
0.65	a mentor	a congressman	54	torture	2	87	1	unidentified	personal	d	Yes	8.96123778149188	N/A	-1	0.6823	0.0431787082614582	0.6354	1	1	TRUE	0.3646	1	0.291959977581399	8.66927780391048	0.65
0.65	an orphan	a nun	54	torture	2	123	1	unidentified	personal	d	Yes	8.3696208269491	N/A	-1	0.674939655172414	0.0424750988702313	0.650120689655172	1	1	TRUE	0.349879310344828	1	-0.299071440869048	8.66869226781815	0.65
0.65	a congressman	a convict	54	torture	2	48	1	unidentified	personal	d	Yes	9.07680897935166	N/A	-1	0.681093220338983	0.0422044454301319	0.637813559322034	1	1	TRUE	0.362186440677966	1	0.392137636910659	8.684671342441	0.65
0.65	a congressman	a convict	54	torture	2	8	1	unidentified	impersonal	d	Yes	8.97802993283716	N/A	-1	0.681093220338983	0.0422044454301319	0.637813559322034	1	1	TRUE	0.362186440677966	1	-0.142969493700956	9.12099942653811	0.65
0.65	a college student	a celebrity	54	torture	2	83	1	unidentified	impersonal	d	Yes	8.34877453979127	N/A	-1	0.652780373831776	0.0447070775342274	0.694439252336449	1	1	TRUE	0.305560747663551	1	-0.320747636512555	8.66952217630383	0.65
0.65	a thief	a rapist	54	torture	2	89	1	strangle	impersonal	d	Yes	8.81328976246904	N/A	-1	0.68801652892562	0.0381526594429219	0.62396694214876	1	1	TRUE	0.37603305785124	1	0.144106729992789	8.66918303247625	0.65
0.65	a thief	a terrorist	54	torture	2	90	1	unidentified	personal	d	Yes	8.32845106681936	N/A	-1	0.662813043478261	0.0398573136143009	0.674373913043478	1	1	TRUE	0.325626086956522	1	-0.340690196748545	8.6691412635679	0.65
0.65	a soldier	a billionaire	54	torture	2	101	1	strangle	personal	d	Yes	8.05452260953729	N/A	-1	0.667106481481481	0.0447005545720737	0.665787037037037	1	1	TRUE	0.334212962962963	1	-0.614330497511913	8.66885310704921	0.65
0.65	an adult	a congressman	54	torture	2	14	1	strangle	personal	d	Yes	9.16199011103514	N/A	-1	0.657921936758893	0.0205052294265774	0.684156126482213	1	1	TRUE	0.315843873517787	1	0.219297062941791	8.94269304809334	0.65
0.65	a celebrity	an elderly person	54	torture	2	70	1	unidentified	personal	d	Yes	8.9282426778183	N/A	-1	0.343976614699332	0.0222691264093206	0.687953229398664	-1	0	FALSE	-0.312046770601336	0	0.25703237537047	8.67121030244783	0.65
0.65	a college student	a congressman	54	torture	2	36	1	unidentified	impersonal	d	Yes	8.99330313909373	N/A	-1	0.688391509433962	0.0445199962671323	0.623216981132076	1	1	TRUE	0.376783018867924	1	0.28101950741859	8.71228363167514	0.65
0.65	a thief	a terrorist	54	torture	2	38	1	unidentified	personal	d	Yes	8.83651926920248	N/A	-1	0.662813043478261	0.0398573136143009	0.674373913043478	1	1	TRUE	0.325626086956522	1	0.130946987204682	8.7055722819978	0.65
0.65	a billionaire	an addict	54	torture	2	132	1	unidentified	impersonal	d	Yes	8.50126704086598	N/A	-1	0.694023364485981	0.0420775235133046	0.611953271028037	1	1	TRUE	0.388046728971963	1	-0.167409134628503	8.66867617549448	0.65
0.65	a congressman	a mentor	54	torture	2	128	1	unidentified	personal	d	Yes	8.34236350038058	N/A	-1	0.318240909090909	0.0448528819202707	0.636481818181818	-1	0	FALSE	-0.363518181818182	0	-0.326318371276335	8.66868187165691	0.65
0.65	an orphan	a homeless adult	54	torture	2	11	1	strangle	personal	d	Yes	9.09773142759353	N/A	-1	0.684376033057851	0.0411319831382023	0.631247933884298	1	1	TRUE	0.368752066115702	1	0.0769976974761448	9.02073373011738	0.65
0.75	a congressman	a billionaire	54	torture	2	82	1	strangle	impersonal	d	Yes	8.59692815943509	N/A	-1	0.39540099009901	0.0476681716111333	0.79080198019802	-1	0	FALSE	-0.20919801980198	0	-0.0726689705328063	8.6695971299679	0.75
0.75	a celebrity	an addict	54	torture	2	55	1	strangle	personal	d	Yes	9.4812068514994	N/A	-1	0.637773148148148	0.0438972936513622	0.724453703703704	1	1	TRUE	0.275546296296296	1	0.803623517224164	8.67758333427524	0.75
0.75	a celebrity	an astronaut	54	torture	2	65	1	unidentified	personal	k	No	9.25426155903411	N/A	-1	0.387955357142857	0.0451070700620291	0.775910714285714	-1	1	FALSE	-0.224089285714286	1	0.581730127775362	8.67253143125875	0.75
0.75	a college student	a judge	54	torture	2	113	1	strangle	personal	d	Yes	8.439663988907	N/A	-1	0.603849557522124	0.0460239293964225	0.792300884955752	1	1	TRUE	0.207699115044248	1	-0.22906803309551	8.66873202200251	0.75
0.75	a congressman	a judge	54	torture	2	129	1	unidentified	personal	d	Yes	8.66957087183712	N/A	-1	0.394986111111111	0.0462903897818986	0.789972222222222	-1	0	FALSE	-0.210027777777778	0	0.00089060729161794	8.6686802645455	0.75
0.75	a convict	an assassin	54	torture	2	49	1	unidentified	personal	k	No	8.85537824604113	N/A	-1	0.64259765625	0.040559929254833	0.7148046875	1	0	TRUE	0.2851953125	0	0.171989867621116	8.68338837842001	0.75
0.75	a mentor	a homeless adult	54	torture	2	54	1	unidentified	personal	d	Yes	9.23737171102721	N/A	-1	0.606858870967742	0.0425259351580464	0.786282258064516	1	1	TRUE	0.213717741935484	1	0.559011142662692	8.67836056836452	0.75
0.75	a mentor	a celebrity	54	torture	2	109	1	unidentified	personal	d	Yes	8.82291162635412	N/A	-1	0.645977477477477	0.0440638730656479	0.708045045045045	1	1	TRUE	0.291954954954955	1	0.154151752929064	8.66875987342505	0.75
0.75	a police officer	a homeless adult	54	torture	2	9	1	strangle	impersonal	d	Yes	9.1239106439778	N/A	-1	0.607461538461538	0.040542459573963	0.785076923076923	1	1	TRUE	0.214923076923077	1	0.0391604422551666	9.08475020172263	0.75
0.75	a celebrity	an adult	54	torture	2	3	1	strangle	personal	k	No	9.42553239350277	N/A	-1	0.385893700787402	0.0206087837113341	0.771787401574803	-1	1	FALSE	-0.228212598425197	1	0.0700422008698443	9.35549019263293	0.75
0.75	a mentor	a homeless adult	54	torture	2	20	1	strangle	impersonal	d	Yes	9.17905608193642	N/A	-1	0.606858870967742	0.0425259351580464	0.786282258064516	1	1	TRUE	0.213717741935484	1	0.344383051081479	8.83467303085494	0.75
0.75	an elderly person	an olympian	54	torture	2	52	1	unidentified	impersonal	d	Yes	9.21064032698518	N/A	-1	0.607183333333333	0.022833781939202	0.785633333333333	1	1	TRUE	0.214366666666667	1	0.530516255759368	8.68012407122581	0.75
0.75	a soldier	a college student	54	torture	2	30	1	unidentified	impersonal	d	Yes	9.55789384146535	N/A	-1	0.614388392857143	0.0445011673894089	0.771223214285714	1	1	TRUE	0.228776785714286	1	0.817226409417	8.74066743204835	0.75
0.75	an elderly person	a homeless adult	54	torture	2	84	1	strangle	impersonal	d	Yes	8.50976567558744	N/A	-1	0.626640692640693	0.0220158059413444	0.746718614718615	1	1	TRUE	0.253281385281385	1	-0.15968755365483	8.66945322924227	0.75
0.75	a college student	a nun	54	torture	2	72	1	strangle	personal	d	Yes	8.29404964010203	N/A	-1	0.609569565217391	0.0429472290536535	0.780860869565217	1	1	TRUE	0.219139130434783	1	-0.376768570096193	8.67081821019822	0.75
0.85	a congressman	an addict	54	torture	2	50	1	unidentified	impersonal	d	Yes	8.64857226947262	N/A	-1	0.595193396226415	0.0470109510219486	0.80961320754717	1	1	TRUE	0.19038679245283	1	-0.0336359585113666	8.68220822798398	0.85
0.85	a congressman	an addict	54	torture	2	18	1	unidentified	impersonal	d	Yes	9.16993495734114	N/A	-1	0.595193396226415	0.0470109510219486	0.80961320754717	1	1	TRUE	0.19038679245283	1	0.305076467908858	8.86485848943229	0.85
0.85	a thief	an assassin	54	torture	2	60	1	unidentified	impersonal	d	Yes	8.399535147948	N/A	-1	0.554382352941176	0.042748102813547	0.891235294117647	1	1	TRUE	0.108764705882353	1	-0.275002282228892	8.6745374301769	0.85
0.85	a judge	a celebrity	54	torture	2	118	1	strangle	impersonal	d	Yes	8.86869477658097	N/A	-1	0.566836363636364	0.0460122272764886	0.866327272727273	1	1	TRUE	0.133672727272727	1	0.199986723255744	8.66870805332523	0.85
0.85	an orphan	a mentor	54	torture	2	45	1	unidentified	impersonal	d	Yes	8.74496601111411	N/A	-1	0.583797413793103	0.0450032880719495	0.832405172413793	1	1	TRUE	0.167594827586207	1	0.0557353552641757	8.68923065584993	0.85
0.85	an orphan	a college student	54	torture	2	5	1	unidentified	personal	k	No	9.41824845064762	N/A	-1	0.568370535714286	0.0457999654895915	0.863258928571428	1	0	TRUE	0.136741071428572	0	0.168428905960901	9.24981954468671	0.85
0.85	an adult	a judge	54	torture	2	32	1	strangle	impersonal	d	Yes	8.65381978894806	N/A	-1	0.57052140077821	0.0218796330743975	0.85895719844358	1	1	TRUE	0.14104280155642	1	-0.0757693588522628	8.72958914780033	0.85
0.85	a pedophile	a terrorist	54	torture	2	59	1	strangle	impersonal	k	No	9.717699996099	N/A	-1	0.440367521367521	0.0383846716606021	0.880735042735043	-1	1	FALSE	-0.119264957264957	1	1.04265068810458	8.67504930799442	0.85
0.85	a judge	an astronaut	54	torture	2	108	1	unidentified	impersonal	d	Yes	9.08159749608346	N/A	-1	0.4485	0.0446577523007099	0.897	-1	0	FALSE	-0.103	0	0.412829080097028	8.66876841598643	0.85
0.85	an olympian	a mentor	54	torture	2	39	1	strangle	personal	d	Yes	9.0050367387903	N/A	-1	0.409928571428571	0.0448828597992241	0.819857142857143	-1	0	FALSE	-0.180142857142857	0	0.302422370765219	8.70261436802508	0.85
0.85	an astronaut	a nun	54	torture	2	127	1	unidentified	impersonal	d	Yes	8.68202943386917	N/A	-1	0.560575630252101	0.0416965933845475	0.878848739495798	1	1	TRUE	0.121151260504202	1	0.0133458150908297	8.66868361877834	0.85
0.95	a mentor	a police officer	54	torture	2	44	1	unidentified	impersonal	k	No	8.5079506100493	N/A	-1	0.491144	0.0424288046905339	0.982288	-1	1	FALSE	-0.017712	1	-0.183071983481765	8.69102259353107	0.95
0.95	a nun	a homeless adult	54	torture	2	95	1	unidentified	personal	d	Yes	8.97221007835365	N/A	-1	0.501072580645161	0.0445880087342438	0.997854838709678	1	1	TRUE	0.00214516129032205	1	0.30323250303727	8.66897757531638	0.95
0.95	an astronaut	a mentor	54	torture	2	46	1	unidentified	impersonal	d	Yes	9.00122299239506	N/A	-1	0.452516806722689	0.0450512196567801	0.905033613445378	-1	0	FALSE	-0.094966386554622	0	0.313640672742499	8.68758231965256	0.95
0.95	a terrorist	a rapist	54	torture	2	66	1	strangle	impersonal	k	No	9.15651756527868	N/A	-1	0.532633333333333	0.0379360460252841	0.934733333333333	1	0	TRUE	0.065266666666667	0	0.484296235381164	8.67222132989751	0.95
0.95	a rapist	a pedophile	54	torture	2	130	1	unidentified	impersonal	k	No	9.30737633448778	N/A	-1	0.522560975609756	0.0359800515933734	0.954878048780488	1	0	TRUE	0.045121951219512	0	0.638697548263726	8.66867878622405	0.95
0.95	an orphan	a soldier	54	torture	2	74	1	strangle	personal	d	Yes	8.5336569174469	N/A	-1	0.454719298245614	0.0435085573683847	0.909438596491228	-1	0	FALSE	-0.090561403508772	0	-0.136829525094511	8.67048644254141	0.95
0.95	a billionaire	a judge	54	torture	2	19	1	strangle	impersonal	k	No	9.45751290108975	N/A	-1	0.509238532110092	0.0463011275569812	0.981522935779817	1	0	TRUE	0.018477064220183	0	0.608377130998244	8.84913577009151	0.95
0.95	a mentor	a college student	54	torture	2	75	1	unidentified	personal	k	No	9.0370578398329	N/A	-1	0.490582608695652	0.0448738974498919	0.981165217391304	-1	1	FALSE	-0.018834782608696	1	0.366717618280546	8.67034022155235	0.95
0.95	an olympian	a judge	54	torture	2	105	1	unidentified	personal	d	Yes	8.54071438645758	N/A	-1	0.510509090909091	0.0457228083488151	0.978981818181818	1	1	TRUE	0.021018181818182	1	-0.1280843875233	8.66879877398088	0.95
0.05	a nun	a terrorist	66	torture	1	27	1	unidentified	impersonal	d	Yes	8.2190566610606	N/A	-1	0.963189655172414	0.0160980550277143	0.0736206896551723	1	1	TRUE	0.926379310344828	1	-0.239877945154326	8.45893460621492	0.05
0.05	a rapist	a college student	66	torture	1	97	1	strangle	personal	k	No	7.81318726752142	N/A	-1	0.0184110169491525	0.0118536579644753	0.0368220338983051	-1	1	FALSE	-0.963177966101695	1	-0.310934020641929	8.12412128816334	0.05
0.05	a pedophile	a college student	66	torture	1	9	1	strangle	personal	k	No	7.90691548867859	N/A	-1	0.00849568965517241	0.00787921190011094	0.0169913793103448	-1	1	FALSE	-0.983008620689655	1	-0.640321884275572	8.54723737295416	0.05
0.05	a judge	a rapist	66	torture	1	14	1	strangle	impersonal	d	Yes	8.77059432989114	N/A	-1	0.961801652892562	0.017259628624014	0.0763966942148759	1	1	TRUE	0.923603305785124	1	0.247977558273057	8.52261677161809	0.05
0.05	a pedophile	a mentor	66	torture	1	91	1	strangle	personal	k	No	7.6182510978767	N/A	-1	0.0093125	0.00795759423097422	0.018625	-1	1	FALSE	-0.981375	1	-0.534041606944547	8.15229270482124	0.05
0.05	a rapist	a soldier	66	torture	1	33	1	unidentified	impersonal	k	No	8.33038156934942	N/A	-1	0.0112375	0.00894990379061108	0.022475	-1	1	FALSE	-0.977525	1	-0.09932197513821	8.42970354448763	0.05
0.05	a homeless adult	a pedophile	66	torture	1	22	1	unidentified	impersonal	d	Yes	8.53738789870176	N/A	-1	0.97884	0.0124448090894667	0.0423200000000001	1	1	TRUE	0.95768	1	0.0540166596722429	8.48337123902951	0.05
0.05	a judge	a terrorist	66	torture	1	72	1	unidentified	personal	d	Yes	7.65681009148038	N/A	-1	0.958891304347826	0.017133692310283	0.0822173913043478	1	1	TRUE	0.917782608695652	1	-0.585338184147072	8.24214827562745	0.05
0.05	a terrorist	a judge	66	torture	1	109	1	strangle	personal	k	No	7.22329567956231	N/A	-1	0.041604347826087	0.0169020034110518	0.0832086956521739	-1	1	FALSE	-0.916791304347826	1	-0.844774489989033	8.06807016955135	0.05
0.05	an assassin	an orphan	66	torture	1	29	1	strangle	personal	k	No	8.21419441485256	N/A	-1	0.0391398305084746	0.0166522055833861	0.0782796610169492	-1	1	FALSE	-0.921720338983051	1	-0.234985258953559	8.44917967380612	0.05
0.05	an elderly person	a rapist	66	torture	1	19	1	strangle	impersonal	d	Yes	8.85409390765552	N/A	-1	0.978935869565217	0.00683391339338584	0.0421282608695652	1	1	TRUE	0.957871739130435	1	0.35602681691304	8.49806709074248	0.05
0.05	an assassin	a soldier	66	torture	1	123	1	strangle	impersonal	k	No	8.19946419761216	N/A	-1	0.0362330508474576	0.0163211160327854	0.0724661016949153	-1	1	FALSE	-0.927533898305085	1	0.19629842129917	8.00316577631299	0.05
0.05	a pedophile	an elderly person	66	torture	1	119	1	unidentified	personal	k	No	7.95050243480885	N/A	-1	0.0111189956331878	0.00477236400907035	0.0222379912663755	-1	1	FALSE	-0.977762008733625	1	-0.0711539907653149	8.02165642557417	0.05
0.05	a rapist	an olympian	66	torture	1	49	1	unidentified	impersonal	k	No	8.58839695042257	N/A	-1	0.0322739130434783	0.0153438999323122	0.0645478260869565	-1	1	FALSE	-0.935452173913043	1	0.236150014336289	8.35224693608628	0.05
0.05	a rapist	an orphan	66	torture	1	15	1	strangle	personal	k	No	8.03560269291858	N/A	-1	0.0112916666666667	0.00929911965748276	0.0225833333333333	-1	1	FALSE	-0.977416666666667	1	-0.482098475433274	8.51770116835186	0.05
0.05	an olympian	a rapist	66	torture	1	18	1	unidentified	personal	d	Yes	8.74448811385292	N/A	-1	0.968169565217391	0.0146511509862991	0.0636608695652174	1	1	TRUE	0.936339130434783	1	0.241516750757816	8.50297136309511	0.05
0.05	a terrorist	an astronaut	66	torture	1	143	1	strangle	personal	k	No	7.6506445514369	N/A	-1	0.0207478632478632	0.0127983740075126	0.0414957264957265	-1	1	FALSE	-0.958504273504273	1	-0.260705356463593	7.91134990790049	0.05
0.05	a pedophile	a soldier	66	torture	1	62	1	strangle	impersonal	k	No	7.88457651059632	N/A	-1	0.0057008547008547	0.00618483788297915	0.0114017094017094	-1	1	FALSE	-0.988598290598291	1	-0.405261286944245	8.28983779754057	0.05
0.05	a terrorist	a nun	66	torture	1	37	1	strangle	impersonal	k	No	7.93092537248339	N/A	-1	0.036875	0.0166537260333573	0.07375	-1	1	FALSE	-0.92625	1	-0.479346936939139	8.41027230942253	0.05
0.05	a nun	a rapist	66	torture	1	94	1	strangle	impersonal	d	Yes	7.99900721324395	N/A	-1	0.965397540983607	0.0154508544396508	0.069204918032787	1	1	TRUE	0.930795081967213	1	-0.139187593380974	8.13819480662493	0.05
0.05	an orphan	a terrorist	66	torture	1	31	1	strangle	personal	d	Yes	8.30622521603216	N/A	-1	0.987894736842105	0.00982634247191761	0.0242105263157895	1	1	TRUE	0.97578947368421	1	-0.133210774855874	8.43943599088803	0.05
0.05	an adult	a pedophile	66	torture	1	149	1	unidentified	impersonal	d	Yes	7.74759683869289	N/A	-1	0.985017441860465	0.00536012626964541	0.0299651162790697	1	1	TRUE	0.97003488372093	1	-0.136414264940911	7.8840111036338	0.05
0.15	an astronaut	an assassin	66	torture	1	1	1	strangle	impersonal	d	Yes	9.11250701162742	N/A	-1	0.938553719008264	0.0208095745564081	0.122892561983471	1	1	TRUE	0.877107438016529	1	0.525728650378504	8.58677836124892	0.15
0.15	an assassin	an olympian	66	torture	1	133	1	unidentified	impersonal	k	No	8.51839247199172	N/A	-1	0.0860044247787611	0.0254249836153448	0.172008849557522	-1	1	FALSE	-0.827991150442478	1	0.561267059674396	7.95712541231732	0.15
0.15	a terrorist	a billionaire	66	torture	1	85	1	strangle	impersonal	k	No	8.0805469658245	N/A	-1	0.0759537037037037	0.0228196409654396	0.151907407407407	-1	1	FALSE	-0.848092592592593	1	-0.100014843600006	8.1805618094245	0.15
0.15	an astronaut	a thief	66	torture	1	20	1	strangle	impersonal	d	Yes	8.52397017569526	N/A	-1	0.90743220338983	0.0260943364766048	0.185135593220339	1	1	TRUE	0.814864406779661	1	0.0308045286604273	8.49316564703483	0.15
0.15	a mentor	an assassin	66	torture	1	75	1	unidentified	personal	d	Yes	8.30967689598773	N/A	-1	0.93865	0.0202499328888821	0.1227	1	1	TRUE	0.8773	1	0.0817819073208881	8.22789498866684	0.15
0.15	a nun	an assassin	66	torture	1	152	1	unidentified	personal	d	Yes	7.45414107814668	N/A	-1	0.9075125	0.0251324869903276	0.184975	1	1	TRUE	0.815025	1	-0.416236071219029	7.87037714936571	0.15
0.15	a congressman	a pedophile	66	torture	1	140	1	unidentified	impersonal	d	Yes	8.01994168767737	N/A	-1	0.912981981981982	0.0250280857365898	0.174036036036036	1	1	TRUE	0.825963963963964	1	0.0948868478789322	7.92505483979843	0.15
0.15	a thief	an adult	66	torture	1	70	1	unidentified	personal	k	No	8.10046489102936	N/A	-1	0.0971128404669261	0.0126635333430366	0.194225680933852	-1	1	FALSE	-0.805774319066148	1	-0.151199290571931	8.25166418160129	0.15
0.15	a pedophile	a billionaire	66	torture	1	155	1	unidentified	personal	k	No	7.54433210805369	N/A	-1	0.0532387387387387	0.0195731580578257	0.106477477477477	-1	1	FALSE	-0.893522522522523	1	-0.31243466447254	7.85676677252623	0.15
0.15	a gang member	a soldier	66	torture	1	129	1	strangle	impersonal	k	No	8.06557942728209	N/A	-1	0.075104347826087	0.0242560568890393	0.150208695652174	-1	1	FALSE	-0.849791304347826	1	0.0900697381374895	7.9755096891446	0.15
0.15	a thief	an elderly person	66	torture	1	56	1	strangle	impersonal	k	No	7.82364593083495	N/A	-1	0.0806984649122807	0.0127074250721736	0.161396929824561	-1	1	FALSE	-0.838603070175439	1	-0.494937926290075	8.31858385712503	0.15
0.15	a pedophile	a congressman	66	torture	1	77	1	strangle	personal	k	No	8.35702443926342	N/A	-1	0.0879144144144144	0.0247452276258316	0.175828828828829	-1	1	FALSE	-0.824171171171171	1	0.138617945686986	8.21840649357643	0.15
0.15	an elderly person	an assassin	66	torture	1	92	1	strangle	impersonal	d	Yes	8.26796230533871	N/A	-1	0.939402838427948	0.0109475834209697	0.121194323144105	1	1	TRUE	0.878805676855895	1	0.120371611381143	8.14759069395757	0.15
0.15	a pedophile	a billionaire	66	torture	1	113	1	unidentified	impersonal	k	No	7.92588031673756	N/A	-1	0.0532387387387387	0.0195731580578257	0.106477477477477	-1	1	FALSE	-0.893522522522523	1	-0.123592215641979	8.04947253237954	0.15
0.15	a rapist	a celebrity	66	torture	1	122	1	unidentified	impersonal	k	No	7.82524529143177	N/A	-1	0.0919260869565217	0.0248653303852083	0.183852173913043	-1	1	FALSE	-0.816147826086957	1	-0.182539147481919	8.00778443891369	0.15
0.15	a rapist	a billionaire	66	torture	1	100	1	unidentified	personal	k	No	8.24143968982973	N/A	-1	0.069578947368421	0.0218931361613793	0.139157894736842	-1	1	FALSE	-0.860842105263158	1	0.131367582553537	8.11007210727619	0.15
0.15	an assassin	a police officer	66	torture	1	39	1	strangle	personal	k	No	7.83082299513532	N/A	-1	0.0741771653543307	0.0225341617884674	0.148354330708661	-1	1	FALSE	-0.851645669291339	1	-0.569750499751189	8.4005734948865	0.15
0.15	an elderly person	an assassin	66	torture	1	69	1	unidentified	impersonal	d	Yes	7.96311205897929	N/A	-1	0.939402838427948	0.0109475834209697	0.121194323144105	1	1	TRUE	0.878805676855895	1	-0.29331419475875	8.25642625373804	0.15
