overlapRound	Item1	Item2	sn	cond	sess	trial	trial_type	title	typeOfScen	keybResp	keyDef	keybRT	rtBeep	rtDeadline	averageP	sdp	overlap	direct.xVy	correct	targetPresent	dirOverlap	correct01	res.RT	fit.RT	overlapRoundSN
0.05	a pedophile	an astronaut	15	injection	1	163	1	unidentified	personal	d	No	7.05444965813294	N/A	-1	0.00911666666666667	0.00849920014293912	0.0182333333333333	-1	1	FALSE	-0.981766666666667	1	-0.184544973597437	7.23899463173038	0.05
0.05	a homeless adult	a terrorist	15	injection	1	44	1	unidentified	impersonal	k	Yes	8.09955428237636	N/A	-1	0.960454545454545	0.0172163154387944	0.0790909090909091	1	1	TRUE	0.920909090909091	1	0.172579969775262	7.9269743126011	0.05
0.05	a college student	a pedophile	15	injection	1	125	1	injection	impersonal	k	Yes	7.10906213568717	N/A	-1	0.991413793103448	0.00764412778063168	0.0171724137931035	1	1	TRUE	0.982827586206896	1	-0.217910574106918	7.32697270979409	0.05
0.05	a rapist	a judge	15	injection	1	138	1	injection	personal	d	No	7.11801620446533	N/A	-1	0.0375743801652893	0.0166342489180119	0.0751487603305785	-1	1	FALSE	-0.924851239669422	1	-0.171761925043224	7.28977812950856	0.05
0.05	a pedophile	an adult	15	injection	1	61	1	unidentified	personal	d	No	6.87316383421252	N/A	-1	0.014656007751938	0.00527429183251669	0.029312015503876	-1	1	FALSE	-0.970687984496124	1	-0.845954212815037	7.71911804702756	0.05
0.05	an adult	a pedophile	15	injection	1	148	1	unidentified	personal	k	Yes	7.28000825288419	N/A	-1	0.985300387596899	0.0053463036724592	0.0293992248062016	1	1	TRUE	0.970600775193798	1	0.0133720722777948	7.26663618060639	0.05
0.05	a pedophile	an adult	15	injection	1	46	1	unidentified	personal	d	No	7.65302041380419	N/A	-1	0.014656007751938	0.00527429183251669	0.029312015503876	-1	1	FALSE	-0.970687984496124	1	-0.246001376223203	7.89902179002739	0.05
0.05	a police officer	a rapist	15	injection	1	107	1	injection	impersonal	k	Yes	8.03883475778775	N/A	-1	0.971612403100775	0.0143467015635418	0.0567751937984495	1	1	TRUE	0.94322480620155	1	0.643254784614423	7.39557997317333	0.05
0.05	a homeless adult	a pedophile	15	injection	1	59	1	unidentified	impersonal	k	Yes	7.59034694560257	N/A	-1	0.9786	0.0116893387597691	0.0428	1	1	TRUE	0.9572	1	-0.1499933753103	7.74034032091286	0.05
0.05	a terrorist	a judge	15	injection	1	162	1	unidentified	personal	d	No	8.06274790108635	N/A	-1	0.0402434782608696	0.0171846890166503	0.0804869565217391	-1	1	FALSE	-0.919513043478261	1	0.822137876522418	7.24061002456394	0.05
0.05	a soldier	a pedophile	15	injection	1	38	1	unidentified	personal	k	Yes	7.8046592970561	N/A	-1	0.994380341880342	0.00640743958484504	0.0112393162393163	1	1	TRUE	0.988760683760684	1	-0.212604797720929	8.01726409477703	0.05
0.05	a rapist	a mentor	15	injection	1	141	1	unidentified	impersonal	d	No	7.2283884515736	N/A	-1	0.0197049180327869	0.0118523424559346	0.0394098360655738	-1	1	FALSE	-0.960590163934426	1	-0.0539956770542132	7.28238412862782	0.05
0.05	a rapist	an astronaut	15	injection	1	129	1	unidentified	personal	d	No	6.95749737087695	N/A	-1	0.0203780487804878	0.0116653678110918	0.0407560975609756	-1	1	FALSE	-0.959243902439024	1	-0.357071621665931	7.31456899254288	0.05
0.05	a rapist	an olympian	15	injection	1	17	1	unidentified	personal	d	No	8.21824792668574	N/A	-1	0.0315130434782609	0.0153219482015266	0.0630260869565218	-1	1	FALSE	-0.936973913043478	1	-0.206247298663197	8.42449522534894	0.05
0.05	a terrorist	a nun	15	injection	1	85	1	injection	impersonal	d	No	7.34083555412327	N/A	-1	0.0365603448275862	0.0160409270081939	0.0731206896551724	-1	1	FALSE	-0.926879310344828	1	-0.176083273541635	7.51691882766491	0.05
0.05	a terrorist	a nun	15	injection	1	55	1	injection	personal	d	No	7.23705902612474	N/A	-1	0.0365603448275862	0.0160409270081939	0.0731206896551724	-1	1	FALSE	-0.926879310344828	1	-0.548137337114778	7.78519636323951	0.05
0.05	a terrorist	an orphan	15	injection	1	92	1	injection	impersonal	d	No	7.24636808010246	N/A	-1	0.0126008771929825	0.00957873112088086	0.0252017543859649	-1	1	FALSE	-0.974798245614035	1	-0.226511565037948	7.47287964514041	0.05
0.05	an olympian	a pedophile	15	injection	1	110	1	injection	personal	k	Yes	6.93828448401696	N/A	-1	0.983132743362832	0.0110308153711761	0.0337345132743363	1	1	TRUE	0.966265486725664	1	-0.444230382650961	7.38251486666792	0.05
0.05	a mentor	a pedophile	15	injection	1	11	1	unidentified	impersonal	k	Yes	7.97762509878459	N/A	-1	0.991166666666667	0.00768182265404359	0.0176666666666667	1	1	TRUE	0.982333333333333	1	-0.595112025854089	8.57273712463868	0.05
0.05	a rapist	an adult	15	injection	1	6	1	unidentified	impersonal	d	No	8.64223868039046	N/A	-1	0.0273921001926782	0.00724544903191676	0.0547842003853565	-1	1	FALSE	-0.945215799614644	1	-0.0671411995779518	8.70937987996841	0.05
0.05	a terrorist	an astronaut	15	injection	1	72	1	injection	impersonal	d	No	7.20414929203594	N/A	-1	0.021957264957265	0.0127231486789184	0.0439145299145299	-1	1	FALSE	-0.95608547008547	1	-0.411208972389153	7.61535826442509	0.05
0.05	a soldier	a terrorist	15	injection	1	99	1	unidentified	impersonal	k	Yes	6.92657703322272	N/A	-1	0.988258771929825	0.00963865111655435	0.0234824561403508	1	1	TRUE	0.976517543859649	1	-0.507575747123737	7.43415278034646	0.05
0.05	a police officer	a terrorist	15	injection	1	157	1	injection	personal	k	Yes	6.98749024700099	N/A	-1	0.968626016260163	0.0146496437045172	0.0627479674796747	1	1	TRUE	0.937252032520325	1	-0.261657075144613	7.2491473221456	0.05
0.05	a judge	a pedophile	15	injection	1	153	1	injection	personal	k	Yes	6.81234509417748	N/A	-1	0.978504237288136	0.0124912791766209	0.0429915254237287	1	1	TRUE	0.957008474576271	1	-0.444219500211778	7.25656459438926	0.05
0.05	a judge	a terrorist	15	injection	1	51	1	unidentified	impersonal	k	Yes	8.0481491016652	N/A	-1	0.958986956521739	0.0173234471756892	0.0820260869565217	1	1	TRUE	0.917973913043478	1	0.214677764925923	7.83347133673928	0.05
0.05	a mentor	a pedophile	15	injection	1	143	1	injection	personal	k	Yes	7.58832367733522	N/A	-1	0.991166666666667	0.00768182265404359	0.0176666666666667	1	1	TRUE	0.982333333333333	1	0.31064736542127	7.27767631191395	0.05
0.05	an orphan	an assassin	15	injection	1	111	1	injection	personal	k	Yes	7.42297125104942	N/A	-1	0.960313559322034	0.0171442240573733	0.0793728813559322	1	1	TRUE	0.920627118644068	1	0.044653900155402	7.37831735089402	0.05
0.05	an orphan	an assassin	15	injection	1	76	1	unidentified	impersonal	k	Yes	7.7397944584087	N/A	-1	0.960313559322034	0.0171442240573733	0.0793728813559322	1	1	TRUE	0.920627118644068	1	0.157263958958188	7.58253049945051	0.05
0.15	an olympian	an assassin	15	injection	1	151	1	injection	impersonal	k	Yes	7.09672137849476	N/A	-1	0.915048672566372	0.0247283905033	0.169902654867257	1	1	TRUE	0.830097345132743	1	-0.163761237427832	7.26048261592259	0.15
0.15	a thief	a mentor	15	injection	1	53	1	unidentified	impersonal	d	No	8.61213966872519	N/A	-1	0.0848008474576271	0.0252680229804017	0.169601694915254	-1	1	FALSE	-0.830398305084746	1	0.803249023549832	7.80889064517536	0.15
0.15	a thief	an astronaut	15	injection	1	16	1	unidentified	impersonal	d	No	8.03657340970731	N/A	-1	0.0936271186440678	0.0246844203997117	0.187254237288136	-1	1	FALSE	-0.812745762711864	1	-0.411508558854713	8.44808196856203	0.15
0.15	a mentor	a thief	15	injection	1	34	1	unidentified	personal	k	Yes	8.53286967080125	N/A	-1	0.916241525423729	0.0243995210740381	0.167516949152542	1	1	TRUE	0.832483050847458	1	0.449642381262095	8.08322728953915	0.15
0.15	an adult	an assassin	15	injection	1	142	1	injection	personal	k	Yes	7.37588214821501	N/A	-1	0.923914893617021	0.0114579108793681	0.152170212765957	1	1	TRUE	0.847829787234043	1	0.095873540622275	7.28000860759274	0.15
0.15	an elderly person	an assassin	15	injection	1	106	1	injection	personal	k	Yes	7.3178761986265	N/A	-1	0.940308951965065	0.0109902575241113	0.119382096069869	1	1	TRUE	0.880617903930131	1	-0.0822212253124226	7.40009742393892	0.15
0.15	a celebrity	a pedophile	15	injection	1	54	1	unidentified	impersonal	k	Yes	7.76937860951398	N/A	-1	0.926133928571429	0.0237574690374345	0.147732142857143	1	1	TRUE	0.852267857142857	1	-0.0275561188169613	7.79693472833095	0.15
0.15	a thief	a mentor	15	injection	1	130	1	unidentified	impersonal	d	No	7.19067603433221	N/A	-1	0.0848008474576271	0.0252680229804017	0.169601694915254	-1	1	FALSE	-0.830398305084746	1	-0.120931796303763	7.31160783063597	0.15
0.15	an elderly person	a thief	15	injection	1	135	1	unidentified	personal	k	Yes	7.21670948670946	N/A	-1	0.920753289473684	0.0124503380396662	0.158493421052632	1	1	TRUE	0.841506578947368	1	-0.0808814177826216	7.29759090449208	0.15
0.15	an astronaut	an assassin	15	injection	1	41	1	injection	personal	k	Yes	8.04044688130311	N/A	-1	0.938780991735537	0.0207370337972495	0.122438016528926	1	1	TRUE	0.877561983471074	1	0.0695709070421131	7.970875974261	0.15
0.15	a celebrity	a pedophile	15	injection	1	103	1	unidentified	personal	k	Yes	7.38150189450671	N/A	-1	0.926133928571429	0.0237574690374345	0.147732142857143	1	1	TRUE	0.852267857142857	1	-0.0326564594118786	7.41415835391859	0.15
0.15	an adult	an assassin	15	injection	1	19	1	unidentified	personal	k	Yes	8.03527891114467	N/A	-1	0.923914893617021	0.0114579108793681	0.152170212765957	1	1	TRUE	0.847829787234043	1	-0.343322582528282	8.37860149367295	0.15
0.15	a college student	a thief	15	injection	1	165	1	unidentified	impersonal	k	Yes	7.60339933974067	N/A	-1	0.918671052631579	0.0243549381322623	0.162657894736842	1	1	TRUE	0.837342105263158	1	0.367547846704132	7.23585149303654	0.15
0.15	a celebrity	a pedophile	15	injection	1	22	1	injection	personal	k	Yes	7.83002808253384	N/A	-1	0.926133928571429	0.0237574690374345	0.147732142857143	1	1	TRUE	0.852267857142857	1	-0.482817172976912	8.31284525551075	0.15
0.15	a homeless adult	an assassin	15	injection	1	68	1	unidentified	impersonal	k	Yes	7.38585107812521	N/A	-1	0.907648	0.0253463712301097	0.184704	1	1	TRUE	0.815296	1	-0.264837086175218	7.65068816430043	0.15
0.15	a thief	a police officer	15	injection	1	127	1	injection	personal	d	No	7.35308192051543	N/A	-1	0.0957137096774194	0.0256606039074224	0.191427419354839	-1	1	FALSE	-0.808572580645161	1	0.0324249458920614	7.32065697462337	0.15
0.25	an addict	a soldier	15	injection	1	67	1	injection	personal	d	No	7.44073370738926	N/A	-1	0.143672566371681	0.0306286161509195	0.287345132743363	-1	1	FALSE	-0.712654867256637	1	-0.219199928465708	7.65993363585497	0.25
0.25	a gang member	an astronaut	15	injection	1	98	1	injection	impersonal	d	No	7.58781721999343	N/A	-1	0.109457627118644	0.0270166342876447	0.218915254237288	-1	1	FALSE	-0.781084745762712	1	0.148432103822619	7.43938511617081	0.25
0.25	a thief	an olympian	15	injection	1	15	1	injection	personal	d	No	7.72533003791713	N/A	-1	0.118216216216216	0.0298701422227155	0.236432432432432	-1	1	FALSE	-0.763567567567568	1	-0.746775816278853	8.47210585419599	0.25
0.25	an assassin	a billionaire	15	injection	1	60	1	injection	impersonal	d	No	7.27586460054653	N/A	-1	0.133165178571429	0.0320494980680974	0.266330357142857	-1	1	FALSE	-0.733669642857143	1	-0.453767156059164	7.7296317566057	0.25
0.25	a celebrity	a terrorist	15	injection	1	158	1	injection	personal	k	Yes	7.27931883541462	N/A	-1	0.898880733944954	0.0271150995099315	0.202238532110092	1	1	TRUE	0.797761467889908	1	0.0319422521190145	7.24737658329561	0.25
0.25	an assassin	a billionaire	15	injection	1	146	1	injection	personal	d	No	7.18387071506245	N/A	-1	0.133165178571429	0.0320494980680974	0.266330357142857	-1	1	FALSE	-0.733669642857143	1	-0.0870602678979413	7.27093098296039	0.25
0.25	a rapist	a congressman	15	injection	1	150	1	unidentified	impersonal	d	No	7.15929190479756	N/A	-1	0.11053982300885	0.0267639729616767	0.221079646017699	-1	1	FALSE	-0.778920353982301	1	-0.103204349250221	7.26249625404779	0.25
0.25	an elderly person	a convict	15	injection	1	88	1	unidentified	personal	k	Yes	7.35691824235602	N/A	-1	0.850249462365591	0.0163019414906608	0.299501075268817	1	1	TRUE	0.700498924731183	1	-0.140431570777288	7.49734981313331	0.25
0.25	a convict	an elderly person	15	injection	1	95	1	injection	impersonal	d	No	7.42535788702715	N/A	-1	0.14914623655914	0.0158346769580298	0.29829247311828	-1	1	FALSE	-0.70170752688172	1	-0.0303132965462325	7.45567118357338	0.25
0.35	a terrorist	an addict	15	injection	1	134	1	injection	impersonal	d	No	6.92657703322272	N/A	-1	0.165610619469027	0.0341644593598514	0.331221238938053	-1	1	FALSE	-0.668778761061947	1	-0.373715251952023	7.30029228517475	0.35
0.35	a gang member	a billionaire	15	injection	1	75	1	injection	personal	d	No	6.77308037565554	N/A	-1	0.184655963302752	0.0361501887637315	0.369311926605505	-1	1	FALSE	-0.630688073394495	1	-0.817432402447273	7.59051277810281	0.35
0.35	an addict	an elderly person	15	injection	1	74	1	injection	personal	d	No	7.65681009148038	N/A	-1	0.198282560706402	0.0185587413205587	0.396565121412804	-1	1	FALSE	-0.603434878587196	1	0.0581670960046692	7.59864299547571	0.35
0.35	an addict	an orphan	15	injection	1	42	1	injection	impersonal	d	No	7.6004023345004	N/A	-1	0.159601769911504	0.0334655768400132	0.319203539823009	-1	1	FALSE	-0.680796460176991	1	-0.355570212260242	7.95597254676064	0.35
0.35	an addict	a rapist	15	injection	1	97	1	unidentified	impersonal	k	Yes	7.66246781520024	N/A	-1	0.849357142857143	0.0307966609989854	0.301285714285714	1	1	TRUE	0.698714285714286	1	0.217753390260219	7.44471442494002	0.35
0.35	a convict	an olympian	15	injection	1	82	1	unidentified	personal	d	No	7.49942329059223	N/A	-1	0.1928	0.034813447729426	0.3856	-1	1	FALSE	-0.6144	1	-0.0381728820785341	7.53759617267076	0.35
0.35	an addict	a terrorist	15	injection	1	77	1	injection	impersonal	k	Yes	7.54009032014532	N/A	-1	0.834823008849558	0.0325704845671684	0.330353982300885	1	1	TRUE	0.669646017699115	1	-0.0346031474571511	7.57469346760248	0.35
0.35	a convict	a nun	15	injection	1	89	1	injection	impersonal	d	No	7.26542972325395	N/A	-1	0.199283464566929	0.0331005591209099	0.398566929133858	-1	1	FALSE	-0.601433070866142	1	-0.22563301926557	7.49106274251952	0.35
0.35	a convict	an astronaut	15	injection	1	37	1	injection	impersonal	d	No	8.17611034223734	N/A	-1	0.161807086614173	0.03043716242269	0.323614173228346	-1	1	FALSE	-0.676385826771654	1	0.142806879510815	8.03330346272653	0.35
0.35	a rapist	an addict	15	injection	1	33	1	unidentified	impersonal	d	No	8.17498453294309	N/A	-1	0.152067226890756	0.0309517032453221	0.304134453781513	-1	1	FALSE	-0.695865546218487	1	0.0744953535324164	8.10048917941067	0.35
0.45	a pedophile	a convict	15	injection	1	80	1	injection	impersonal	d	No	7.05789793741186	N/A	-1	0.2137421875	0.0331194631562428	0.427484375	-1	1	FALSE	-0.572515625	1	-0.494129725715064	7.55202766312692	0.45
0.45	a pedophile	a convict	15	injection	1	122	1	injection	personal	d	No	6.96979066990159	N/A	-1	0.2137421875	0.0331194631562428	0.427484375	-1	1	FALSE	-0.572515625	1	-0.367101404696421	7.33689207459801	0.45
0.45	a celebrity	a thief	15	injection	1	120	1	injection	impersonal	k	Yes	7.30182234213793	N/A	-1	0.798859090909091	0.0363368949698754	0.402281818181818	1	1	TRUE	0.597718181818182	1	-0.0419928272025816	7.34381516934051	0.45
0.45	a thief	a celebrity	15	injection	1	144	1	unidentified	personal	d	No	7.23273313617761	N/A	-1	0.201277272727273	0.0358809876655362	0.402554545454545	-1	1	FALSE	-0.597445454545455	1	-0.0426533188784308	7.27538645505605	0.45
0.45	an addict	a college student	15	injection	1	132	1	unidentified	impersonal	d	No	7.10249935577465	N/A	-1	0.207527027027027	0.0364033281771794	0.415054054054054	-1	1	FALSE	-0.584945945945946	1	-0.203346815916834	7.30584617169148	0.45
0.45	a soldier	a congressman	15	injection	1	91	1	unidentified	personal	k	Yes	7.16780918431644	N/A	-1	0.77092523364486	0.0397976282057804	0.45814953271028	1	1	TRUE	0.54185046728972	1	-0.311020536917756	7.4788297212342	0.45
0.45	a thief	a celebrity	15	injection	1	29	1	unidentified	impersonal	d	No	8.04430540699064	N/A	-1	0.201277272727273	0.0358809876655362	0.402554545454545	-1	1	FALSE	-0.597445454545455	1	-0.128490389862355	8.17279579685299	0.45
0.45	a celebrity	a thief	15	injection	1	62	1	unidentified	personal	k	Yes	7.36264527041782	N/A	-1	0.798859090909091	0.0363368949698754	0.402281818181818	1	1	TRUE	0.597718181818182	1	-0.346150376153162	7.70879564657099	0.45
0.45	a mentor	an addict	15	injection	1	48	1	unidentified	personal	k	Yes	7.5522372875608	N/A	-1	0.78665652173913	0.0374115918873791	0.426686956521739	1	1	TRUE	0.573313043478261	1	-0.319839981847335	7.87207726940814	0.45
0.45	a billionaire	a convict	15	injection	1	118	1	unidentified	personal	k	Yes	7.5207764150628	N/A	-1	0.765122881355932	0.0380799978472862	0.469754237288136	1	1	TRUE	0.530245762711864	1	0.169779156094331	7.35099725896847	0.45
0.45	an addict	a mentor	15	injection	1	96	1	unidentified	impersonal	d	No	7.28344822875663	N/A	-1	0.212395652173913	0.0378976773247652	0.424791304347826	-1	1	FALSE	-0.575208695652174	1	-0.16669427513532	7.45014250389195	0.45
0.45	an astronaut	an addict	15	injection	1	12	1	unidentified	personal	k	Yes	8.26513562993738	N/A	-1	0.768952586206897	0.0382252590118163	0.462094827586207	1	1	TRUE	0.537905172413793	1	-0.281746506561788	8.54688213649917	0.45
0.45	an addict	an astronaut	15	injection	1	71	1	unidentified	impersonal	d	No	6.90173720665657	N/A	-1	0.231456896551724	0.0372138645901549	0.462913793103448	-1	1	FALSE	-0.537086206896552	1	-0.722211746345124	7.6239489530017	0.45
0.45	a convict	a rapist	15	injection	1	43	1	injection	personal	k	Yes	7.84815308619953	N/A	-1	0.760026923076923	0.0348361735554017	0.479946153846154	1	1	TRUE	0.520053846153846	1	-0.0931872181836058	7.94134030438313	0.45
0.45	an astronaut	an addict	15	injection	1	159	1	injection	impersonal	k	Yes	7.5595594960077	N/A	-1	0.768952586206897	0.0382252590118163	0.462094827586207	1	1	TRUE	0.537905172413793	1	0.313921430918046	7.24563806508965	0.45
0.45	an addict	a mentor	15	injection	1	21	1	injection	impersonal	d	No	8.16650031915505	N/A	-1	0.212395652173913	0.0378976773247652	0.424791304347826	-1	1	FALSE	-0.575208695652174	1	-0.16786242661321	8.33436274576826	0.45
0.55	an addict	an olympian	15	injection	1	1	1	unidentified	impersonal	d	No	8.84404789894249	N/A	-1	0.27137037037037	0.0400127619284033	0.542740740740741	-1	1	FALSE	-0.457259259259259	1	-0.0151151361857362	8.85916303512823	0.55
0.55	an addict	a nun	15	injection	1	101	1	unidentified	personal	d	No	7.7151236036321	N/A	-1	0.281104347826087	0.0401767535401031	0.562208695652174	-1	1	FALSE	-0.437791304347826	1	0.29115160213213	7.42397200149998	0.55
0.55	a pedophile	a thief	15	injection	1	164	1	injection	personal	d	No	7.92948652331429	N/A	-1	0.282151260504202	0.0371897967683901	0.564302521008403	-1	1	FALSE	-0.435697478991597	1	0.692077890474098	7.23740863284019	0.55
0.55	a gang member	a pedophile	15	injection	1	27	1	injection	impersonal	k	Yes	9.39864400044769	N/A	-1	0.749372881355932	0.0352926853652114	0.501254237288136	1	1	TRUE	0.498745762711864	1	1.1876537198498	8.21099028059789	0.55
0.55	an addict	an assassin	15	injection	1	100	1	unidentified	impersonal	k	Yes	7.646353722446	N/A	-1	0.74275641025641	0.0382283997643448	0.51448717948718	1	1	TRUE	0.48551282051282	1	0.217338069514057	7.42901565293194	0.55
0.55	a nun	an addict	15	injection	1	154	1	unidentified	impersonal	k	Yes	6.95272864462487	N/A	-1	0.720730434782609	0.0417596024130291	0.558539130434783	1	1	TRUE	0.441460869565217	1	-0.301930245056065	7.25465888968093	0.55
0.55	a thief	a pedophile	15	injection	1	93	1	injection	impersonal	k	Yes	7.34665516317654	N/A	-1	0.717663865546219	0.0360716885234309	0.564672268907563	1	1	TRUE	0.435327731092437	1	-0.120382674395318	7.46703783757186	0.55
0.55	a celebrity	a convict	15	injection	1	83	1	injection	personal	k	Yes	7.11639414409346	N/A	-1	0.720033613445378	0.0402981619588129	0.559932773109244	1	1	TRUE	0.440067226890756	1	-0.414182628842912	7.53057677293638	0.55
0.55	a judge	an addict	15	injection	1	69	1	injection	personal	k	Yes	7.32712329225929	N/A	-1	0.713214912280702	0.0412718549645038	0.573570175438596	1	1	TRUE	0.426429824561404	1	-0.314487632548595	7.64161092480789	0.55
0.55	a soldier	a nun	15	injection	1	24	1	unidentified	impersonal	k	Yes	7.62119516280984	N/A	-1	0.706818965517241	0.0424779605534542	0.586362068965517	1	1	TRUE	0.413637931034483	1	-0.649782594704351	8.2709777575142	0.55
0.55	a judge	a soldier	15	injection	1	45	1	unidentified	personal	d	No	8.05006542291597	N/A	-1	0.293404347826087	0.0417386478388924	0.586808695652174	-1	1	FALSE	-0.413191304347826	1	0.13719569623934	7.91286972667663	0.55
0.55	an addict	an assassin	15	injection	1	156	1	injection	personal	k	Yes	7.17011954344963	N/A	-1	0.74275641025641	0.0382283997643448	0.51448717948718	1	1	TRUE	0.48551282051282	1	-0.0808313353479315	7.25095087879756	0.55
0.55	a celebrity	an orphan	15	injection	1	109	1	injection	personal	k	Yes	7.15851399732932	N/A	-1	0.289871559633028	0.0418937057356549	0.579743119266055	-1	0	FALSE	-0.420256880733945	0	-0.228276179328961	7.38679017665828	0.55
0.55	a homeless adult	an addict	15	injection	1	133	1	injection	personal	k	Yes	7.41697962138115	N/A	-1	0.717916666666667	0.0394492553002429	0.564166666666667	1	1	TRUE	0.435833333333333	1	0.1139358897694	7.30304373161175	0.55
0.55	an olympian	a soldier	15	injection	1	4	1	unidentified	impersonal	d	No	8.66112036022288	N/A	-1	0.293362385321101	0.0423312611857292	0.586724770642202	-1	1	FALSE	-0.413275229357798	1	-0.10652776216485	8.76764812238773	0.55
0.55	a judge	an addict	15	injection	1	36	1	unidentified	personal	k	Yes	8.14844566624324	N/A	-1	0.713214912280702	0.0412718549645038	0.573570175438596	1	1	TRUE	0.426429824561404	1	0.0988055716307947	8.04964009461244	0.55
0.55	a homeless adult	a soldier	15	injection	1	136	1	injection	impersonal	d	No	7.90322680873073	N/A	-1	0.281132231404959	0.0396040915007594	0.562264462809917	-1	1	FALSE	-0.437735537190083	1	0.608288130171365	7.29493867855937	0.55
0.65	a congressman	an adult	15	injection	1	113	1	injection	personal	k	Yes	7.2848209125686	N/A	-1	0.342495059288538	0.0204004172059486	0.684990118577075	-1	0	FALSE	-0.315009881422925	0	-0.0853291529612212	7.37015006552982	0.65
0.65	an astronaut	a soldier	15	injection	1	56	1	injection	impersonal	k	Yes	8.33110454805304	N/A	-1	0.325444444444444	0.0412882504121759	0.650888888888889	-1	0	FALSE	-0.349111111111111	0	0.557432956758059	7.77367159129498	0.65
0.65	a billionaire	an addict	15	injection	1	39	1	unidentified	impersonal	k	Yes	8.37355374121463	N/A	-1	0.694514018691589	0.0433835959137578	0.610971962616822	1	1	TRUE	0.389028037383178	1	0.372037159512255	8.00151658170237	0.65
0.65	a gang member	an addict	15	injection	1	63	1	injection	impersonal	d	No	7.86672228513673	N/A	-1	0.332521929824561	0.0399001173230231	0.665043859649123	-1	1	FALSE	-0.334956140350877	1	0.168061210991758	7.69866107414497	0.65
0.65	an adult	a congressman	15	injection	1	128	1	unidentified	personal	k	Yes	7.66809370908241	N/A	-1	0.659046442687747	0.0207459470810961	0.681907114624506	1	1	TRUE	0.318092885375494	1	0.350508674250318	7.31758503483209	0.65
0.65	a congressman	a police officer	15	injection	1	5	1	unidentified	impersonal	d	No	8.87080344398212	N/A	-1	0.319762931034483	0.0428843051579314	0.639525862068966	-1	1	FALSE	-0.360474137931034	1	0.132556941061987	8.73824650292014	0.65
0.75	an olympian	a congressman	15	injection	1	124	1	unidentified	impersonal	k	Yes	7.20785987143248	N/A	-1	0.61476213592233	0.0466263021320415	0.77047572815534	1	1	TRUE	0.22952427184466	1	-0.122358763637976	7.33021863507045	0.75
0.75	a police officer	a homeless adult	15	injection	1	147	1	injection	personal	k	Yes	7.48885295573346	N/A	-1	0.607953846153846	0.0419580630980578	0.784092307692308	1	1	TRUE	0.215907692307692	1	0.22008909055898	7.26876386517448	0.75
0.75	a judge	a college student	15	injection	1	114	1	unidentified	personal	d	No	7.56268124672188	N/A	-1	0.39653982300885	0.0468090542049721	0.793079646017699	-1	1	FALSE	-0.206920353982301	1	0.196503705089729	7.36617754163216	0.75
0.75	a celebrity	an astronaut	15	injection	1	112	1	injection	personal	d	No	7.86403565907245	N/A	-1	0.386517857142857	0.0465893743733308	0.773035714285714	-1	1	FALSE	-0.226964285714286	1	0.489839445291736	7.37419621378071	0.75
0.75	a homeless adult	a police officer	15	injection	1	117	1	unidentified	personal	d	No	7.86365126544865	N/A	-1	0.390376923076923	0.0426081500247473	0.780753846153846	-1	1	FALSE	-0.219246153846154	1	0.508962824752279	7.35468844069637	0.75
0.75	a homeless adult	a police officer	15	injection	1	32	1	injection	impersonal	k	Yes	9.01225522000275	N/A	-1	0.390376923076923	0.0426081500247473	0.780753846153846	-1	0	FALSE	-0.219246153846154	0	0.894184229302871	8.11807099069988	0.75
0.75	a soldier	a police officer	15	injection	1	58	1	unidentified	impersonal	k	Yes	7.9218984110238	N/A	-1	0.609426829268293	0.0425460412416769	0.781146341463415	1	1	TRUE	0.218853658536585	1	0.170651059755142	7.75124735126865	0.75
0.75	a judge	a college student	15	injection	1	116	1	injection	personal	d	No	7.64204440287326	N/A	-1	0.39653982300885	0.0468090542049721	0.793079646017699	-1	1	FALSE	-0.206920353982301	1	0.283596370321228	7.35844803255203	0.75
0.75	an orphan	an astronaut	15	injection	1	70	1	unidentified	personal	k	Yes	7.95997452808054	N/A	-1	0.634205128205128	0.0425143347174985	0.731589743589744	1	1	TRUE	0.268410256410256	1	0.327275671880381	7.63269885620016	0.75
0.75	an astronaut	a congressman	15	injection	1	123	1	unidentified	personal	k	Yes	7.21597500265147	N/A	-1	0.649718181818182	0.045743949930414	0.700563636363636	1	1	TRUE	0.299436363636364	1	-0.117549715709552	7.33352471836102	0.75
0.75	a nun	a college student	15	injection	1	131	1	unidentified	impersonal	d	No	7.44833386089748	N/A	-1	0.393273913043478	0.0433387217664603	0.786547826086957	-1	1	FALSE	-0.213452173913043	1	0.139633310398236	7.30870055049924	0.75
0.75	a police officer	a nun	15	injection	1	102	1	unidentified	personal	k	Yes	7.38770923908104	N/A	-1	0.601044	0.0429865782531003	0.797912	1	1	TRUE	0.202088	1	-0.0313108860657634	7.4190201251468	0.75
0.75	a congressman	an olympian	15	injection	1	7	1	unidentified	personal	d	No	8.94272233056014	N/A	-1	0.386883495145631	0.0461847510643143	0.773766990291262	-1	1	FALSE	-0.226233009708738	1	0.261683811908766	8.68103851865138	0.75
0.75	a celebrity	a police officer	15	injection	1	50	1	unidentified	personal	d	No	7.72046169459972	N/A	-1	0.355792372881356	0.0420979678510143	0.711584745762712	-1	1	FALSE	-0.288415254237288	1	-0.125642706367397	7.84610440096712	0.75
0.75	a celebrity	an addict	15	injection	1	57	1	unidentified	impersonal	k	Yes	7.47873482556787	N/A	-1	0.640611111111111	0.045569409521253	0.718777777777778	1	1	TRUE	0.281222222222222	1	-0.283621700354798	7.76235652592267	0.75
0.75	an elderly person	a nun	15	injection	1	161	1	injection	impersonal	k	Yes	6.97073007814353	N/A	-1	0.621462800875274	0.0222020472397586	0.757074398249453	1	1	TRUE	0.242925601750547	1	-0.271525277966897	7.24225535611042	0.75
0.75	an adult	an orphan	15	injection	1	20	1	unidentified	personal	k	Yes	9.41800473644193	N/A	-1	0.384748538011696	0.0205704271934029	0.769497076023392	-1	0	FALSE	-0.230502923976608	0	1.06172570827697	8.35627902816496	0.75
0.75	a college student	a homeless adult	15	injection	1	25	1	unidentified	impersonal	k	Yes	8.43250638324904	N/A	-1	0.6133	0.0431495261135746	0.7734	1	1	TRUE	0.2266	1	0.181892752725696	8.25061363052335	0.75
0.75	a soldier	a college student	15	injection	1	140	1	injection	impersonal	k	Yes	7.69848278788095	N/A	-1	0.61234375	0.0442744016214062	0.7753125	1	1	TRUE	0.2246875	1	0.413679111749166	7.28480367613178	0.75
0.75	an adult	a soldier	15	injection	1	23	1	unidentified	personal	d	No	8.46083445774685	N/A	-1	0.353553606237817	0.0219548241496223	0.707107212475633	-1	1	FALSE	-0.292892787524367	1	0.169115156839236	8.29171930090762	0.75
0.75	a mentor	a homeless adult	15	injection	1	87	1	injection	personal	k	Yes	7.28000825288419	N/A	-1	0.60733064516129	0.0430323306027765	0.785338709677419	1	1	TRUE	0.214661290322581	1	-0.223745151623891	7.50375340450808	0.75
0.85	a college student	an olympian	15	injection	1	149	1	injection	personal	k	Yes	6.95749737087695	N/A	-1	0.597907407407407	0.046103595546529	0.804185185185185	1	1	TRUE	0.195814814814815	1	-0.307049840846117	7.26454721172307	0.85
0.85	an orphan	a mentor	15	injection	1	81	1	unidentified	impersonal	k	Yes	7.31654817718298	N/A	-1	0.581568965517241	0.0458948700588467	0.836862068965517	1	1	TRUE	0.163137931034483	1	-0.228197488527776	7.54474566571075	0.85
0.85	an astronaut	a judge	15	injection	1	126	1	unidentified	impersonal	k	Yes	6.96129604591017	N/A	-1	0.553326271186441	0.0448169382163177	0.893347457627119	1	1	TRUE	0.106652542372881	1	-0.362489801977033	7.3237858478872	0.85
0.85	an astronaut	a nun	15	injection	1	14	1	injection	impersonal	k	Yes	7.62608275807238	N/A	-1	0.56303781512605	0.0433375155145934	0.873924369747899	1	1	TRUE	0.126075630252101	1	-0.870492225911459	8.49657498398384	0.85
0.85	a nun	a mentor	15	injection	1	64	1	unidentified	impersonal	d	No	8.37309184744198	N/A	-1	0.400676470588235	0.0452489320410096	0.801352941176471	-1	1	FALSE	-0.198647058823529	1	0.68438093544101	7.68871091200097	0.85
0.85	an orphan	a police officer	15	injection	1	121	1	injection	impersonal	k	Yes	7.37086016653672	N/A	-1	0.571666666666667	0.043314841964177	0.856666666666667	1	1	TRUE	0.143333333333333	1	0.0305383271595874	7.34032183937713	0.85
0.85	a judge	an adult	15	injection	1	78	1	unidentified	impersonal	k	Yes	7.04490511712937	N/A	-1	0.428427042801556	0.0213034059277876	0.856854085603113	-1	0	FALSE	-0.143145914396887	0	-0.522093922495513	7.56699903962488	0.85
0.85	a congressman	an addict	15	injection	1	65	1	injection	impersonal	k	Yes	7.3125534981026	N/A	-1	0.596948113207547	0.0468179576871421	0.806103773584906	1	1	TRUE	0.193896226415094	1	-0.366388306477743	7.67894180458034	0.85
0.85	a nun	a police officer	15	injection	1	90	1	unidentified	impersonal	d	No	7.48717369421374	N/A	-1	0.401232	0.0441011007014913	0.802464	-1	1	FALSE	-0.197536	1	0.00228362177720509	7.48489007243653	0.85
0.85	a gang member	a convict	15	injection	1	105	1	injection	personal	k	Yes	7.66996199547358	N/A	-1	0.437596	0.0417022764829915	0.875192	-1	0	FALSE	-0.124808	0	0.26526339707114	7.40469859840244	0.85
0.85	a nun	a police officer	15	injection	1	119	1	injection	impersonal	d	No	7.29165620917446	N/A	-1	0.401232	0.0441011007014913	0.802464	-1	1	FALSE	-0.197536	1	-0.0557170333923507	7.34737324256681	0.85
0.85	a police officer	an olympian	15	injection	1	35	1	injection	impersonal	k	Yes	8.39231000926955	N/A	-1	0.595012711864407	0.0460158576291958	0.809974576271187	1	1	TRUE	0.190025423728813	1	0.326030509524921	8.06627949974463	0.85
0.85	an orphan	an elderly person	15	injection	1	3	1	injection	personal	k	Yes	8.53797573059877	N/A	-1	0.567614537444934	0.0235697944773507	0.864770925110132	1	1	TRUE	0.135229074889868	1	-0.259618923074001	8.79759465367277	0.85
0.85	an orphan	an elderly person	15	injection	1	86	1	injection	impersonal	k	Yes	7.83676478326407	N/A	-1	0.567614537444934	0.0235697944773507	0.864770925110132	1	1	TRUE	0.135229074889868	1	0.326489107094982	7.51027567616908	0.85
0.85	an adult	a nun	15	injection	1	155	1	injection	personal	k	Yes	8.60410456340553	N/A	-1	0.57211359223301	0.0217706425856006	0.85577281553398	1	1	TRUE	0.14422718446602	1	1.35131670192878	7.25278786147675	0.85
0.85	an orphan	an elderly person	15	injection	1	9	1	unidentified	personal	k	Yes	8.21012440516427	N/A	-1	0.567614537444934	0.0235697944773507	0.864770925110132	1	1	TRUE	0.135229074889868	1	-0.415769118696353	8.62589352386062	0.85
0.95	a nun	a judge	15	injection	1	49	1	unidentified	impersonal	k	Yes	8.78874588193814	N/A	-1	0.497991452991453	0.0436712681429765	0.995982905982906	-1	0	FALSE	-0.00401709401709405	0	0.929774283177986	7.85897159876015	0.95
0.95	a celebrity	a congressman	15	injection	1	137	1	unidentified	impersonal	k	Yes	7.23201033166476	N/A	-1	0.538593137254902	0.0477627621652496	0.922813725490196	1	1	TRUE	0.077186274509804	1	-0.0603243812842535	7.29233471294901	0.95
0.95	a judge	an olympian	15	injection	1	8	1	unidentified	impersonal	k	Yes	8.17046857833067	N/A	-1	0.491681818181818	0.0471262132032691	0.983363636363636	-1	0	FALSE	-0.016636363636364	0	-0.482744282894615	8.65321286122529	0.95
0.95	a congressman	a celebrity	15	injection	1	18	1	injection	impersonal	k	Yes	8.80956425335415	N/A	-1	0.460921568627451	0.0480320190756013	0.921843137254902	-1	0	FALSE	-0.078156862745098	0	0.408226583110011	8.40133767024414	0.95
0.95	a judge	a nun	15	injection	1	31	1	unidentified	personal	k	Yes	8.1870210673435	N/A	-1	0.499940170940171	0.0428050990162641	0.999880341880342	-1	0	FALSE	-0.000119658119657973	0	0.0510424147068349	8.13597865263667	0.95
0.95	a celebrity	a congressman	15	injection	1	139	1	unidentified	impersonal	d	No	7.45818615734049	N/A	-1	0.538593137254902	0.0477627621652496	0.922813725490196	1	0	TRUE	0.077186274509804	0	0.170918091275936	7.28726806606455	0.95
0.95	a billionaire	a judge	15	injection	1	145	1	unidentified	impersonal	d	No	7.14598446771439	N/A	-1	0.508426605504587	0.0448341309309505	0.983146788990826	1	0	TRUE	0.016853211009174	0	-0.127153797081136	7.27313826479552	0.95
0.95	a homeless adult	a nun	15	injection	1	13	1	injection	impersonal	k	Yes	8.88336291691676	N/A	-1	0.498701612903226	0.0448836182586846	0.997403225806452	-1	0	FALSE	-0.00259677419354798	0	0.361865307105552	8.52149760981121	0.95
0.95	an orphan	a soldier	15	injection	1	26	1	injection	personal	d	No	8.88985958777302	N/A	-1	0.452508771929825	0.0446417147401942	0.905017543859649	-1	1	FALSE	-0.094982456140351	1	0.659239535366472	8.23062005240654	0.95
0.95	an adult	an elderly person	15	injection	1	40	1	unidentified	personal	k	Yes	7.95822719232231	N/A	-1	0.450726846424385	0.0165911781619389	0.901453692848769	-1	0	FALSE	-0.098546307151231	0	-0.0278284205427957	7.98605561286511	0.95
0.95	a homeless adult	a judge	15	injection	1	160	1	injection	impersonal	k	Yes	6.77878489768518	N/A	-1	0.494532786885246	0.0433951485414395	0.989065573770492	-1	0	FALSE	-0.010934426229508	0	-0.465146283550641	7.24393118123582	0.95
0.95	an orphan	a soldier	15	injection	1	79	1	unidentified	impersonal	d	No	7.7151236036321	N/A	-1	0.452508771929825	0.0446417147401942	0.905017543859649	-1	1	FALSE	-0.094982456140351	1	0.155678982956938	7.55944462067517	0.95
0.95	a college student	a police officer	15	injection	1	52	1	injection	impersonal	k	Yes	8.10681603894705	N/A	-1	0.499938016528926	0.0441942406002109	0.999876033057851	-1	0	FALSE	-0.000123966942149001	0	0.285747893201792	7.82106814574526	0.95
0.95	a billionaire	a judge	15	injection	1	47	1	injection	impersonal	d	No	7.9298464297425	N/A	-1	0.508426605504587	0.0448341309309505	0.983146788990826	1	0	TRUE	0.016853211009174	0	0.0444205971198848	7.88542583262262	0.95
0.95	a mentor	an elderly person	15	injection	1	73	1	unidentified	impersonal	k	Yes	7.31055015853442	N/A	-1	0.478497811816193	0.0235550669885043	0.956995623632385	-1	0	FALSE	-0.043004376367615	0	-0.296373734841488	7.60692389337591	0.95
0.95	an adult	a mentor	15	injection	1	10	1	injection	impersonal	k	Yes	8.526351129201	N/A	-1	0.47537572815534	0.0215624595113937	0.95075145631068	-1	0	FALSE	-0.04924854368932	0	-0.0727201642764879	8.59907129347749	0.95
0.95	an adult	a mentor	15	injection	1	28	1	injection	personal	k	Yes	9.32598779550214	N/A	-1	0.47537572815534	0.0215624595113937	0.95075145631068	-1	0	FALSE	-0.04924854368932	0	1.13427010028185	8.1917176952203	0.95
0.95	a homeless adult	a nun	15	injection	1	84	1	unidentified	personal	k	Yes	8.03592636989179	N/A	-1	0.498701612903226	0.0448836182586846	0.997403225806452	-1	0	FALSE	-0.00259677419354798	0	0.512241270582553	7.52368509930924	0.95
0.95	an adult	a mentor	15	injection	1	2	1	injection	personal	k	Yes	9.21552689866348	N/A	-1	0.47537572815534	0.0215624595113937	0.95075145631068	-1	0	FALSE	-0.04924854368932	0	0.387430702822464	8.82809619584102	0.95
0.95	a mentor	an astronaut	15	injection	1	152	1	injection	impersonal	d	No	7.2848209125686	N/A	-1	0.548226890756302	0.0458820375756317	0.903546218487395	1	0	TRUE	0.096453781512605	0	0.0263152942935454	7.25850561827506	0.95
0.95	an adult	a mentor	15	injection	1	66	1	unidentified	personal	k	Yes	7.54750168281497	N/A	-1	0.47537572815534	0.0215624595113937	0.95075145631068	-1	0	FALSE	-0.04924854368932	0	-0.121848774567747	7.66935045738271	0.95
0.95	a mentor	an elderly person	15	injection	1	94	1	injection	personal	k	Yes	7.12447826249342	N/A	-1	0.478497811816193	0.0235550669885043	0.956995623632385	-1	0	FALSE	-0.043004376367615	0	-0.336824065963915	7.46130232845734	0.95
0.95	an adult	a police officer	15	injection	1	30	1	injection	impersonal	d	No	9.10830764641103	N/A	-1	0.467562260536398	0.0218380840913308	0.935124521072797	-1	1	FALSE	-0.064875478927203	1	0.95408944207133	8.1542182043397	0.95
0.95	a gang member	a thief	15	injection	1	108	1	injection	impersonal	k	Yes	7.24565506759454	N/A	-1	0.528478448275862	0.0444979437556261	0.943043103448276	1	1	TRUE	0.056956896551724	1	-0.145489655061482	7.39114472265602	0.95
0.05	a pedophile	an astronaut	54	injection	1	73	1	unidentified	personal	k	No	8.97866048963969	N/A	-1	0.00911666666666667	0.00849920014293912	0.0182333333333333	-1	1	FALSE	-0.981766666666667	1	0.571892152423008	8.40676833721668	0.05
0.05	a pedophile	an olympian	54	injection	1	114	1	injection	impersonal	k	No	7.94200680848986	N/A	-1	0.0179203539823009	0.0112931710233724	0.0358407079646018	-1	1	FALSE	-0.964159292035398	1	-0.240833264013495	8.18284007250335	0.05
0.05	a soldier	a pedophile	54	injection	1	75	1	unidentified	impersonal	d	Yes	8.12533508671429	N/A	-1	0.994380341880342	0.00640743958484504	0.0112393162393163	1	1	TRUE	0.988760683760684	1	-0.268758465378358	8.39409355209265	0.05
0.05	a homeless adult	a terrorist	54	injection	1	113	1	injection	impersonal	d	Yes	7.84658997529119	N/A	-1	0.960454545454545	0.0172163154387944	0.0790909090909091	1	1	TRUE	0.920909090909091	1	-0.34089844385888	8.18748841915007	0.05
0.05	a homeless adult	a rapist	54	injection	1	45	1	injection	impersonal	d	Yes	8.35655484545343	N/A	-1	0.963688976377953	0.015761459972695	0.0726220472440946	1	1	TRUE	0.927377952755905	1	-0.25022482462103	8.60677967007446	0.05
0.05	a terrorist	a judge	54	injection	1	68	1	unidentified	personal	k	No	8.75020786252571	N/A	-1	0.0402434782608696	0.0171846890166503	0.0804869565217391	-1	1	FALSE	-0.919513043478261	1	0.310868504494357	8.43933935803135	0.05
0.05	a terrorist	a nun	54	injection	1	1	1	injection	impersonal	k	No	9.12314716027381	N/A	-1	0.0365603448275862	0.0160409270081939	0.0731206896551724	-1	1	FALSE	-0.926879310344828	1	0.0982364561085269	9.02491070416528	0.05
0.05	a pedophile	an elderly person	54	injection	1	102	1	unidentified	impersonal	k	No	7.86710550031674	N/A	-1	0.0110971615720524	0.00495209206236316	0.0221943231441049	-1	1	FALSE	-0.977805676855895	1	-0.373996125888397	8.24110162620514	0.05
0.05	a rapist	a police officer	54	injection	1	87	1	injection	impersonal	k	No	8.23827262463303	N/A	-1	0.0284651162790698	0.0138053888735035	0.0569302325581396	-1	1	FALSE	-0.94306976744186	1	-0.0838108773917785	8.32208350202481	0.05
0.05	an adult	a rapist	54	injection	1	101	1	injection	impersonal	d	Yes	8.41249912030157	N/A	-1	0.972573217726397	0.00708948483114052	0.0548535645472061	1	1	TRUE	0.945146435452794	1	0.166290183050466	8.24620893725111	0.05
0.05	a terrorist	an astronaut	54	injection	1	86	1	injection	impersonal	d	Yes	8.6044711995233	N/A	-1	0.021957264957265	0.0127231486789184	0.0439145299145299	-1	0	FALSE	-0.95608547008547	0	0.276642439202153	8.32782876032114	0.05
0.05	a judge	a rapist	54	injection	1	52	1	injection	impersonal	d	Yes	8.55833513474741	N/A	-1	0.961768595041322	0.0160326049765369	0.0764628099173554	1	1	TRUE	0.923537190082645	1	0.0057503263896237	8.55258480835779	0.05
0.05	an astronaut	a rapist	54	injection	1	81	1	injection	personal	d	Yes	8.19201691453688	N/A	-1	0.980134146341463	0.0120100867283966	0.0397317073170731	1	1	TRUE	0.960268292682927	1	-0.16522419766039	8.35724111219726	0.05
0.05	an adult	a rapist	54	injection	1	34	1	unidentified	personal	d	Yes	8.42551640284433	N/A	-1	0.972573217726397	0.00708948483114052	0.0548535645472061	1	1	TRUE	0.945146435452794	1	-0.27267529063168	8.69819169347601	0.05
0.05	an olympian	a pedophile	54	injection	1	79	1	injection	personal	d	Yes	8.02617019494643	N/A	-1	0.983132743362832	0.0110308153711761	0.0337345132743363	1	1	TRUE	0.966265486725664	1	-0.343162793817905	8.36933298876433	0.05
0.05	a rapist	an adult	54	injection	1	29	1	injection	personal	k	No	8.57073395834427	N/A	-1	0.0273921001926782	0.00724544903191676	0.0547842003853565	-1	1	FALSE	-0.945215799614644	1	-0.171689698905423	8.74242365724969	0.05
0.05	a terrorist	an astronaut	54	injection	1	32	1	injection	personal	k	No	9.0831885863157	N/A	-1	0.021957264957265	0.0127231486789184	0.0439145299145299	-1	1	FALSE	-0.95608547008547	1	0.36751207588949	8.71567651042621	0.05
0.05	a rapist	a police officer	54	injection	1	14	1	unidentified	impersonal	k	No	8.06934236681164	N/A	-1	0.0284651162790698	0.0138053888735035	0.0569302325581396	-1	1	FALSE	-0.94306976744186	1	-0.81668261676197	8.8860249835736	0.05
0.05	a terrorist	a police officer	54	injection	1	47	1	injection	impersonal	k	No	8.10832229017324	N/A	-1	0.0318617886178862	0.0154429755730561	0.0637235772357724	-1	1	FALSE	-0.936276422764228	1	-0.482668203640676	8.59099049381392	0.05
0.05	an elderly person	a rapist	54	injection	1	124	1	unidentified	impersonal	d	Yes	7.59135704669855	N/A	-1	0.979313043478261	0.00645383400269892	0.0413739130434783	1	1	TRUE	0.958626086956522	1	-0.546951680610022	8.13830872730857	0.05
0.05	an orphan	a pedophile	54	injection	1	44	1	unidentified	personal	d	Yes	8.38753998318937	N/A	-1	0.994641025641026	0.00643549412442133	0.0107179487179487	1	1	TRUE	0.989282051282051	1	-0.227227683272618	8.61476766646198	0.05
0.15	a thief	an orphan	54	injection	1	33	1	unidentified	personal	k	No	8.46926265765869	N/A	-1	0.0599913043478261	0.0208469924057757	0.119982608695652	-1	1	FALSE	-0.880017391304348	1	-0.237637144555789	8.70689980221448	0.15
0.15	an assassin	an astronaut	54	injection	1	70	1	injection	personal	k	No	8.65990729361541	N/A	-1	0.0617314049586777	0.0210099201065071	0.123462809917355	-1	1	FALSE	-0.876537190082645	1	0.233749886462563	8.42615740715285	0.15
0.15	a pedophile	a congressman	54	injection	1	65	1	injection	personal	k	No	8.47532898731754	N/A	-1	0.0864144144144144	0.0244871492660071	0.172828828828829	-1	1	FALSE	-0.827171171171171	1	0.01582472984391	8.45950425747363	0.15
0.15	a thief	an adult	54	injection	1	92	1	injection	personal	d	Yes	9.24725072599628	N/A	-1	0.0979961089494163	0.0128595085332453	0.195992217898833	-1	0	FALSE	-0.804007782101167	0	0.953226912948676	8.2940238130476	0.15
0.15	a thief	a police officer	54	injection	1	17	1	unidentified	impersonal	k	No	8.60190191934319	N/A	-1	0.0957137096774194	0.0256606039074224	0.191427419354839	-1	1	FALSE	-0.808572580645161	1	-0.254034967811814	8.855936887155	0.15
0.15	an assassin	a homeless adult	54	injection	1	84	1	injection	impersonal	k	No	8.1610895128458	N/A	-1	0.092936	0.0250939357138255	0.185872	-1	1	FALSE	-0.814128	1	-0.178365898086208	8.339455410932	0.15
0.15	an assassin	a nun	54	injection	1	15	1	injection	personal	k	No	9.27575351052442	N/A	-1	0.0921958333333333	0.025415326835272	0.184391666666667	-1	1	FALSE	-0.815608333333333	1	0.399836692839866	8.87591681768455	0.15
0.15	a police officer	an assassin	54	injection	1	106	1	unidentified	impersonal	d	Yes	7.39141523467536	N/A	-1	0.926405511811024	0.0221224551383562	0.147188976377953	1	1	TRUE	0.852811023622047	1	-0.829653231037872	8.22106846571323	0.15
0.15	a college student	a gang member	54	injection	1	74	1	injection	personal	d	Yes	8.94832604627298	N/A	-1	0.900694690265487	0.0275367319171496	0.198610619469026	1	1	TRUE	0.801389380530974	1	0.547919965578453	8.40040608069453	0.15
0.15	a billionaire	a terrorist	54	injection	1	64	1	injection	impersonal	d	Yes	8.8071726229167	N/A	-1	0.925166666666667	0.0233484567292738	0.149666666666667	1	1	TRUE	0.850333333333333	1	0.340840553893994	8.46633206902271	0.15
0.15	a homeless adult	an assassin	54	injection	1	117	1	injection	impersonal	d	Yes	8.09803475617607	N/A	-1	0.907648	0.0253463712301097	0.184704	1	1	TRUE	0.815296	1	-0.0710771338737839	8.16911189004986	0.15
0.15	a college student	an assassin	54	injection	1	38	1	unidentified	personal	d	Yes	8.39570329382853	N/A	-1	0.943047413793103	0.0204321716460694	0.113905172413793	1	1	TRUE	0.886094827586207	1	-0.268331298509846	8.66403459233837	0.15
0.25	a nun	a gang member	54	injection	1	96	1	injection	personal	d	Yes	7.78155595923534	N/A	-1	0.856273504273504	0.0310302612754701	0.287452991452992	1	1	TRUE	0.712547008547008	1	-0.490799414237903	8.27235537347324	0.25
0.25	a homeless adult	a gang member	54	injection	1	22	1	unidentified	personal	d	Yes	8.99454475832451	N/A	-1	0.856131147540984	0.031190410291517	0.287737704918033	1	1	TRUE	0.712262295081967	1	0.18720717202541	8.8073375862991	0.25
0.25	a convict	an elderly person	54	injection	1	121	1	unidentified	personal	k	No	7.90581031265893	N/A	-1	0.14914623655914	0.0158346769580298	0.29829247311828	-1	1	FALSE	-0.70170752688172	1	-0.245492877313636	8.15130318997257	0.25
0.25	a police officer	a gang member	54	injection	1	12	1	unidentified	personal	d	Yes	8.7224171414275	N/A	-1	0.880197580645161	0.0278170489095493	0.239604838709677	1	1	TRUE	0.760395161290323	1	-0.184063687131111	8.90648082855861	0.25
0.25	a convict	a soldier	54	injection	1	28	1	injection	personal	k	No	8.41648848729461	N/A	-1	0.109987903225806	0.0270886731849198	0.219975806451613	-1	1	FALSE	-0.780024193548387	1	-0.33499172282851	8.75148021012312	0.25
0.25	an orphan	a convict	54	injection	1	62	1	unidentified	personal	d	Yes	9.07348918922699	N/A	-1	0.881052419354839	0.0278411791135616	0.237895161290323	1	1	TRUE	0.762104838709677	1	0.593339711965461	8.48014947726153	0.25
0.35	an assassin	a congressman	54	injection	1	67	1	injection	personal	d	Yes	8.26049285657318	N/A	-1	0.195234234234234	0.0371874582731895	0.390468468468468	-1	0	FALSE	-0.609531531531532	0	-0.185515460893452	8.44600831746664	0.35
0.35	a convict	a police officer	54	injection	1	66	1	injection	personal	k	No	8.65504025810836	N/A	-1	0.164266917293233	0.0312512260097744	0.328533834586466	-1	1	FALSE	-0.671466165413534	1	0.202310445447157	8.4527298126612	0.35
0.35	a thief	a billionaire	54	injection	1	91	1	injection	impersonal	d	Yes	8.28778002708843	N/A	-1	0.160298165137615	0.0338538454483703	0.320596330275229	-1	0	FALSE	-0.679403669724771	0	-0.0117679997162448	8.29954802680468	0.35
0.35	a convict	a police officer	54	injection	1	43	1	injection	impersonal	k	No	8.28878581042693	N/A	-1	0.164266917293233	0.0312512260097744	0.328533834586466	-1	1	FALSE	-0.671466165413534	1	-0.334032779099449	8.62281858952638	0.35
0.35	an adult	a convict	54	injection	1	30	1	unidentified	impersonal	k	No	9.34207014265408	N/A	-1	0.827326003824092	0.0162837518641181	0.345347992351816	1	0	TRUE	0.654652007648184	0	0.608632251515651	8.73343789113843	0.35
0.45	a celebrity	a thief	54	injection	1	72	1	unidentified	personal	d	Yes	8.43879912398823	N/A	-1	0.798859090909091	0.0363368949698754	0.402281818181818	1	1	TRUE	0.597718181818182	1	0.0256184105897397	8.41318071339849	0.45
0.45	a pedophile	a gang member	54	injection	1	24	1	unidentified	personal	k	No	8.44827174594982	N/A	-1	0.249423728813559	0.0348538941563495	0.498847457627119	-1	1	FALSE	-0.501152542372881	1	-0.340153762062533	8.78842550801235	0.45
0.45	a convict	a homeless adult	54	injection	1	82	1	injection	personal	k	No	8.25919936266628	N/A	-1	0.201545454545455	0.0333975093464339	0.403090909090909	-1	1	FALSE	-0.596909090909091	1	-0.0920666018732099	8.35126596453949	0.45
0.45	a mentor	an addict	54	injection	1	93	1	injection	impersonal	d	Yes	7.95822719232231	N/A	-1	0.78665652173913	0.0374115918873791	0.426686956521739	1	1	TRUE	0.573313043478261	1	-0.330315584677312	8.28854277699962	0.45
0.45	a police officer	an addict	54	injection	1	105	1	unidentified	personal	d	Yes	7.95682712209011	N/A	-1	0.7825	0.036356361673863	0.435	1	1	TRUE	0.565	1	-0.269190840349248	8.22601796243936	0.45
0.45	an addict	a mentor	54	injection	1	11	1	injection	impersonal	k	No	8.55814317774519	N/A	-1	0.212395652173913	0.0378976773247652	0.424791304347826	-1	1	FALSE	-0.575208695652174	1	-0.358686589424762	8.91682976716995	0.45
0.45	an addict	a college student	54	injection	1	10	1	injection	personal	d	Yes	9.47393464889887	N/A	-1	0.207527027027027	0.0364033281771794	0.415054054054054	-1	0	FALSE	-0.584945945945946	0	0.546674417753232	8.92726023114564	0.45
0.55	a convict	a terrorist	54	injection	1	107	1	injection	personal	d	Yes	7.64587582518481	N/A	-1	0.739116935483871	0.0339518275164411	0.521766129032258	1	1	TRUE	0.478233870967742	1	-0.570281829475796	8.21615765466061	0.55
0.55	a gang member	a congressman	54	injection	1	116	1	injection	personal	k	No	9.03943341999748	N/A	-1	0.26012037037037	0.0398205705856276	0.520240740740741	-1	1	FALSE	-0.479759259259259	1	0.86578132918121	8.17365209081627	0.55
0.55	an addict	an olympian	54	injection	1	120	1	unidentified	personal	k	No	9.05473863988161	N/A	-1	0.27137037037037	0.0400127619284033	0.542740740740741	-1	1	FALSE	-0.457259259259259	1	0.899035539931544	8.15570309995007	0.55
0.55	an addict	a judge	54	injection	1	83	1	injection	personal	d	Yes	8.73568594451502	N/A	-1	0.285149122807018	0.039458267150313	0.570298245614035	-1	0	FALSE	-0.429701754385965	0	0.390348425387751	8.34533751912727	0.55
0.55	a terrorist	a convict	54	injection	1	90	1	injection	impersonal	k	No	8.69901462316851	N/A	-1	0.261399193548387	0.0364013908700897	0.522798387096774	-1	1	FALSE	-0.477201612903226	1	0.393898864758585	8.30511575840993	0.55
0.55	an addict	a nun	54	injection	1	111	1	unidentified	personal	k	No	8.73085190351923	N/A	-1	0.281104347826087	0.0401767535401031	0.562208695652174	-1	1	FALSE	-0.437791304347826	1	0.533956648402544	8.19689525511669	0.55
0.55	a judge	an addict	54	injection	1	108	1	injection	personal	k	No	8.6301646700754	N/A	-1	0.713214912280702	0.0412718549645038	0.573570175438596	1	0	TRUE	0.426429824561404	0	0.418879443164306	8.21128522691109	0.55
0.55	a soldier	a celebrity	54	injection	1	103	1	unidentified	personal	d	Yes	8.38594490480628	N/A	-1	0.744100917431193	0.0393356949487244	0.511798165137615	1	1	TRUE	0.488201834862385	1	0.149910670483905	8.23603423432238	0.55
0.65	a thief	a rapist	54	injection	1	119	1	unidentified	impersonal	d	Yes	7.91899248816525	N/A	-1	0.688107438016529	0.0384750932668855	0.623785123966942	1	1	TRUE	0.376214876033058	1	-0.241145182733598	8.16013767089884	0.65
0.65	a terrorist	a gang member	54	injection	1	42	1	unidentified	personal	k	No	8.74576199937551	N/A	-1	0.30964347826087	0.0402295140577779	0.619286956521739	-1	1	FALSE	-0.380713043478261	1	0.114829064393254	8.63093293498226	0.65
0.65	an elderly person	a congressman	54	injection	1	56	1	unidentified	impersonal	d	Yes	8.07090608878782	N/A	-1	0.695299107142857	0.0220553442044867	0.609401785714286	1	1	TRUE	0.390598214285714	1	-0.452020825810209	8.52292691459803	0.65
0.65	a thief	a terrorist	54	injection	1	80	1	unidentified	impersonal	d	Yes	8.00269416228394	N/A	-1	0.660591304347826	0.0387584666941251	0.678817391304348	1	1	TRUE	0.321182608695652	1	-0.360569167720813	8.36326333000475	0.65
0.65	a convict	a congressman	54	injection	1	21	1	unidentified	personal	d	Yes	8.68423189134568	N/A	-1	0.320737288135593	0.0430475053699024	0.641474576271186	-1	0	FALSE	-0.358525423728814	0	-0.132673617341679	8.81690550868735	0.65
0.65	an elderly person	a celebrity	54	injection	1	61	1	injection	impersonal	d	Yes	8.73488189204748	N/A	-1	0.656057906458797	0.0230968149971982	0.687884187082405	1	1	TRUE	0.312115812917595	1	0.247741967325279	8.4871399247222	0.65
0.65	an astronaut	a soldier	54	injection	1	25	1	injection	personal	k	No	8.30622521603216	N/A	-1	0.325444444444444	0.0412882504121759	0.650888888888889	-1	1	FALSE	-0.349111111111111	1	-0.4728549716197	8.77908018765186	0.65
0.65	an assassin	a pedophile	54	injection	1	58	1	unidentified	personal	d	Yes	8.47386806667786	N/A	-1	0.658148760330579	0.036145223228315	0.683702479338843	1	1	TRUE	0.316297520661157	1	-0.0345753490664809	8.50844341574435	0.65
0.65	an orphan	a judge	54	injection	1	55	1	injection	impersonal	d	Yes	8.03300949859667	N/A	-1	0.672530434782609	0.0415835757052905	0.654939130434783	1	1	TRUE	0.345060869565217	1	-0.497244849340055	8.53025434793672	0.65
0.65	an olympian	an orphan	54	injection	1	39	1	unidentified	impersonal	k	No	8.31898612539206	N/A	-1	0.331380733944954	0.0459827561436041	0.662761467889908	-1	1	FALSE	-0.337238532110092	1	-0.336675396213916	8.65566152160598	0.65
0.65	a gang member	an addict	54	injection	1	88	1	injection	personal	d	Yes	8.67402598544303	N/A	-1	0.332521929824561	0.0399001173230231	0.665043859649123	-1	0	FALSE	-0.334956140350877	0	0.35764283630316	8.31638314913986	0.65
0.65	a terrorist	a thief	54	injection	1	100	1	unidentified	personal	d	Yes	8.79330862749655	N/A	-1	0.338926086956522	0.0391120040446866	0.677852173913044	-1	0	FALSE	-0.322147826086956	0	0.541952145566881	8.25135648192967	0.65
0.75	a college student	a judge	54	injection	1	37	1	unidentified	personal	d	Yes	9.34364673928441	N/A	-1	0.60533185840708	0.0456721017968094	0.789336283185841	1	1	TRUE	0.210663716814159	1	0.671173116054073	8.67247362323033	0.75
0.75	a college student	a soldier	54	injection	1	46	1	injection	personal	k	No	8.02780284837031	N/A	-1	0.38903125	0.0444010124404974	0.7780625	-1	1	FALSE	-0.2219375	1	-0.571051260153393	8.5988541085237	0.75
0.75	a billionaire	an orphan	54	injection	1	110	1	unidentified	impersonal	k	No	8.0179667034936	N/A	-1	0.360384259259259	0.0444136620308075	0.720768518518519	-1	1	FALSE	-0.279231481481481	1	-0.183687620144431	8.20165432363803	0.75
0.75	a college student	a judge	54	injection	1	123	1	injection	personal	d	Yes	8.16820293023605	N/A	-1	0.60533185840708	0.0456721017968094	0.789336283185841	1	1	TRUE	0.210663716814159	1	0.0255966588391701	8.14260627139688	0.75
0.75	an elderly person	a judge	54	injection	1	51	1	unidentified	impersonal	d	Yes	8.97106743873209	N/A	-1	0.617467032967033	0.0227089719836577	0.765065934065934	1	1	TRUE	0.234934065934066	1	0.41092156239101	8.56014587634108	0.75
0.75	a homeless adult	a college student	54	injection	1	78	1	injection	personal	d	Yes	8.0805469658245	N/A	-1	0.385495833333333	0.044027945334606	0.770991666666667	-1	0	FALSE	-0.229008333333333	0	-0.294903496374948	8.37545046219945	0.75
0.75	a rapist	an assassin	54	injection	1	35	1	unidentified	personal	k	No	8.35302584520232	N/A	-1	0.369427419354839	0.0368508674709788	0.738854838709677	-1	1	FALSE	-0.261145161290323	1	-0.336525802829371	8.6895516480317	0.75
0.75	a terrorist	an assassin	54	injection	1	109	1	unidentified	personal	d	Yes	8.03883475778775	N/A	-1	0.398097457627119	0.0399726077276294	0.796194915254237	-1	0	FALSE	-0.203805084745763	0	-0.167616124669875	8.20645088245762	0.75
0.75	an orphan	an adult	54	injection	1	59	1	unidentified	personal	d	Yes	8.24905227417129	N/A	-1	0.614493177387914	0.0211809623194401	0.771013645224172	1	1	TRUE	0.228986354775828	1	-0.252234184274327	8.50128645844562	0.75
0.75	an addict	a convict	54	injection	1	69	1	unidentified	impersonal	k	No	8.20631072579402	N/A	-1	0.602967479674797	0.0443357966761862	0.794065040650406	1	0	TRUE	0.205934959349594	0	-0.226411797937519	8.43272252373154	0.75
0.75	a police officer	a celebrity	54	injection	1	40	1	unidentified	impersonal	d	Yes	8.47303229563047	N/A	-1	0.645516949152542	0.0416268101510839	0.708966101694915	1	1	TRUE	0.291033898305085	1	-0.174321599852645	8.64735389548311	0.75
0.75	an addict	a convict	54	injection	1	118	1	unidentified	personal	d	Yes	8.75179089277556	N/A	-1	0.602967479674797	0.0443357966761862	0.794065040650406	1	1	TRUE	0.205934959349594	1	0.587183716909502	8.16460717586606	0.75
0.75	a terrorist	an assassin	54	injection	1	3	1	unidentified	personal	d	Yes	8.9641840463529	N/A	-1	0.398097457627119	0.0399726077276294	0.796194915254237	-1	0	FALSE	-0.203805084745763	0	-0.0384267325464389	9.00261077889934	0.75
0.85	an olympian	a celebrity	54	injection	1	41	1	injection	impersonal	k	No	9.47408829413233	N/A	-1	0.573245192307692	0.0478583656879819	0.853509615384615	1	0	TRUE	0.146490384615385	0	0.834977091683005	8.63911120244933	0.85
0.85	an astronaut	a homeless adult	54	injection	1	50	1	unidentified	personal	k	No	9.58424601117658	N/A	-1	0.561262096774194	0.0451204027112932	0.877475806451613	1	0	TRUE	0.122524193548387	0	1.01647950336988	8.5677665078067	0.85
0.85	a judge	an astronaut	54	injection	1	54	1	unidentified	impersonal	d	Yes	8.22657347497711	N/A	-1	0.445627118644068	0.0436469227056791	0.891254237288136	-1	0	FALSE	-0.108745762711864	0	-0.311066029287593	8.53763950426471	0.85
0.85	a judge	a mentor	54	injection	1	85	1	unidentified	personal	k	No	8.14089846060785	N/A	-1	0.407786324786325	0.0448441164187291	0.81557264957265	-1	1	FALSE	-0.18442735042735	1	-0.192720817170345	8.3336192777782	0.85
0.85	a celebrity	a homeless adult	54	injection	1	97	1	injection	personal	k	No	8.05038445306702	N/A	-1	0.439586206896552	0.0446129790992599	0.879172413793103	-1	1	FALSE	-0.120827586206897	1	-0.216659246664189	8.26704369973121	0.85
0.85	a celebrity	a judge	54	injection	1	104	1	unidentified	personal	d	Yes	8.7268056084461	N/A	-1	0.436390909090909	0.0442024200308221	0.872781818181818	-1	0	FALSE	-0.127218181818182	0	0.495799158854723	8.23100644959137	0.85
0.85	an elderly person	a billionaire	54	injection	1	94	1	injection	impersonal	d	Yes	7.89020821310996	N/A	-1	0.588561383928571	0.022876195567052	0.822877232142857	1	1	TRUE	0.177122767857143	1	-0.392896368070248	8.28310458118021	0.85
0.85	a college student	an orphan	54	injection	1	57	1	injection	personal	k	No	8.16137502319749	N/A	-1	0.428049107142857	0.04558855315649	0.856098214285714	-1	1	FALSE	-0.143901785714286	1	-0.354281729883505	8.51565675308099	0.85
0.85	a congressman	an addict	54	injection	1	77	1	injection	impersonal	d	Yes	8.34260168068419	N/A	-1	0.596948113207547	0.0468179576871421	0.806103773584906	1	1	TRUE	0.193896226415094	1	-0.0390144462933986	8.38161612697759	0.85
0.85	a police officer	an olympian	54	injection	1	71	1	injection	impersonal	d	Yes	8.20275638165564	N/A	-1	0.595012711864407	0.0460158576291958	0.809974576271187	1	1	TRUE	0.190025423728813	1	-0.216887222409683	8.41964360406532	0.85
0.85	a thief	an assassin	54	injection	1	95	1	unidentified	personal	d	Yes	8.17554759602103	N/A	-1	0.552252100840336	0.0402844179639467	0.895495798319328	1	1	TRUE	0.104504201680672	1	-0.102161294725587	8.27770889074661	0.85
0.85	a celebrity	an olympian	54	injection	1	98	1	unidentified	impersonal	d	Yes	8.56959587020929	N/A	-1	0.428120192307692	0.0485416342311043	0.856240384615385	-1	0	FALSE	-0.143759615384615	0	0.307822327741254	8.26177354246803	0.85
0.85	a celebrity	an olympian	54	injection	1	76	1	injection	impersonal	d	Yes	8.53129331579502	N/A	-1	0.428120192307692	0.0485416342311043	0.856240384615385	-1	0	FALSE	-0.143759615384615	0	0.143462953061487	8.38783036273353	0.85
0.85	a college student	an orphan	54	injection	1	122	1	injection	impersonal	k	No	7.54380286750151	N/A	-1	0.428049107142857	0.04558855315649	0.856098214285714	-1	1	FALSE	-0.143901785714286	1	-0.603134802551838	8.14693767005335	0.85
0.85	a convict	a gang member	54	injection	1	26	1	injection	impersonal	d	Yes	9.15873123824295	N/A	-1	0.564452	0.0426043522052246	0.871096	1	1	TRUE	0.128904	1	0.388923327158988	8.76980791108396	0.85
0.85	an astronaut	a homeless adult	54	injection	1	49	1	unidentified	impersonal	k	No	8.49678638163858	N/A	-1	0.561262096774194	0.0451204027112932	0.877475806451613	1	0	TRUE	0.122524193548387	0	-0.0786607903366274	8.5754471719752	0.85
0.95	an elderly person	an adult	54	injection	1	20	1	unidentified	personal	d	Yes	8.5271435222694	N/A	-1	0.549025791324736	0.016619808078152	0.901948417350527	1	1	TRUE	0.098051582649473	1	-0.299405281594462	8.82654880386387	0.95
0.95	a college student	a mentor	54	injection	1	2	1	injection	personal	k	No	9.56268595775369	N/A	-1	0.508834782608696	0.0465326113909833	0.982330434782609	1	0	TRUE	0.017669565217391	0	0.548968961692992	9.01371699606069	0.95
0.95	a nun	an olympian	54	injection	1	27	1	unidentified	impersonal	d	Yes	9.8880185216322	N/A	-1	0.487022321428571	0.0462068625704722	0.974044642857143	-1	0	FALSE	-0.025955357142857	0	1.12741041423983	8.76060810739237	0.95
0.95	a judge	a billionaire	54	injection	1	19	1	injection	personal	d	Yes	8.70863965598719	N/A	-1	0.492715596330275	0.0460311336715175	0.98543119266055	-1	0	FALSE	-0.01456880733945	0	-0.127628409602247	8.83626806558944	0.95
0.95	a mentor	an astronaut	54	injection	1	23	1	injection	personal	d	Yes	8.66060065471097	N/A	-1	0.548226890756302	0.0458820375756317	0.903546218487395	1	1	TRUE	0.096453781512605	1	-0.137243792868235	8.7978444475792	0.95
0.95	a rapist	a terrorist	54	injection	1	13	1	unidentified	impersonal	k	No	8.76608245914886	N/A	-1	0.4672375	0.0377322063558415	0.934475	-1	1	FALSE	-0.065525	1	-0.130130318953785	8.89621277810265	0.95
0.95	a mentor	an astronaut	54	injection	1	16	1	unidentified	impersonal	d	Yes	8.9005490139363	N/A	-1	0.548226890756302	0.0458820375756317	0.903546218487395	1	1	TRUE	0.096453781512605	1	0.0346613558848201	8.86588765805148	0.95
0.95	a college student	a mentor	54	injection	1	89	1	unidentified	personal	k	No	8.06714903991011	N/A	-1	0.508834782608696	0.0465326113909833	0.982330434782609	1	0	TRUE	0.017669565217391	0	-0.24357831077182	8.31072735068193	0.95
0.95	a rapist	a pedophile	54	injection	1	53	1	injection	personal	d	Yes	9.37330920025432	N/A	-1	0.522528455284553	0.0366524979234826	0.954943089430894	1	1	TRUE	0.045056910569106	1	0.828226361950565	8.54508283830376	0.95
0.95	an adult	a college student	54	injection	1	112	1	injection	personal	k	No	8.31311670281925	N/A	-1	0.46326614481409	0.0217091622435218	0.92653228962818	-1	1	FALSE	-0.07346771037182	1	0.120943318952909	8.19217338386634	0.95
0.95	a nun	a billionaire	54	injection	1	99	1	unidentified	impersonal	d	Yes	7.89729647259588	N/A	-1	0.490395454545455	0.0484861774234336	0.980790909090909	-1	0	FALSE	-0.019209090909091	0	-0.359248104591607	8.25654457718749	0.95
0.95	a gang member	a thief	54	injection	1	115	1	injection	personal	d	Yes	8.28853445941392	N/A	-1	0.528478448275862	0.0444979437556261	0.943043103448276	1	1	TRUE	0.056956896551724	1	0.110306401697562	8.17822805771636	0.95
0.95	a gang member	a thief	54	injection	1	60	1	injection	personal	d	Yes	8.22389538017882	N/A	-1	0.528478448275862	0.0444979437556261	0.943043103448276	1	1	TRUE	0.056956896551724	1	-0.270290060334982	8.4941854405138	0.95
0.05	a homeless adult	a terrorist	8	injection	1	99	1	injection	impersonal	d	Yes	8.38366179879172	N/A	-1	0.960454545454545	0.0172163154387944	0.0790909090909091	1	1	TRUE	0.920909090909091	1	0.195484111862493	8.18817768692922	0.05
0.05	a police officer	a terrorist	8	injection	1	81	1	unidentified	impersonal	d	Yes	7.54855597916987	N/A	-1	0.968626016260163	0.0146496437045172	0.0627479674796747	1	1	TRUE	0.937252032520325	1	-0.818509084705831	8.3670650638757	0.05
0.05	a pedophile	a homeless adult	8	injection	1	135	1	injection	personal	k	No	7.74066440191724	N/A	-1	0.02036	0.0119965961138282	0.04072	-1	1	FALSE	-0.95928	1	-0.110159098450353	7.8508235003676	0.05
0.05	a pedophile	an astronaut	8	injection	1	59	1	injection	impersonal	k	No	8.62532985002082	N/A	-1	0.00911666666666667	0.00849920014293912	0.0182333333333333	-1	1	FALSE	-0.981766666666667	1	0.029856333186375	8.59547351683444	0.05
0.05	a rapist	a judge	8	injection	1	119	1	unidentified	personal	k	No	8.05990833457828	N/A	-1	0.0375743801652893	0.0166342489180119	0.0751487603305785	-1	1	FALSE	-0.924851239669422	1	0.0624187850860558	7.99748954949222	0.05
0.05	an assassin	a soldier	8	injection	1	31	1	injection	impersonal	k	No	9.11844435727165	N/A	-1	0.0368093220338983	0.0165451193349942	0.0736186440677966	-1	1	FALSE	-0.926381355932203	1	0.215938567440256	8.90250578983139	0.05
0.05	an adult	a rapist	8	injection	1	21	1	unidentified	personal	d	Yes	9.28098521154551	N/A	-1	0.972573217726397	0.00708948483114052	0.0548535645472061	1	1	TRUE	0.945146435452794	1	0.264194999294117	9.0167902122514	0.05
0.05	a pedophile	an elderly person	8	injection	1	7	1	injection	impersonal	k	No	9.34425918954197	N/A	-1	0.0110971615720524	0.00495209206236316	0.0221943231441049	-1	1	FALSE	-0.977805676855895	1	0.163219326852388	9.18103986268958	0.05
0.05	a rapist	an elderly person	8	injection	1	90	1	unidentified	impersonal	k	No	8.34355383500512	N/A	-1	0.0209010869565217	0.00640818868528944	0.0418021739130435	-1	1	FALSE	-0.958197826086956	1	0.0668114148361898	8.27674242016893	0.05
0.05	an assassin	an orphan	8	injection	1	54	1	injection	impersonal	k	No	8.35349709874545	N/A	-1	0.0396694915254237	0.0163164667141698	0.0793389830508474	-1	1	FALSE	-0.920661016949153	1	-0.295435761169831	8.64893285991528	0.05
0.05	an adult	a terrorist	8	injection	1	71	1	unidentified	personal	d	Yes	8.64664125860312	N/A	-1	0.970610136452242	0.00732141469415586	0.0587797270955166	1	1	TRUE	0.941220272904483	1	0.177113492519977	8.46952776608315	0.05
0.05	a soldier	a rapist	8	injection	1	82	1	unidentified	impersonal	d	Yes	7.99564360428727	N/A	-1	0.988995833333333	0.00893136805352516	0.0220083333333334	1	1	TRUE	0.977991666666667	1	-0.361297720918588	8.35694132520586	0.05
0.05	a rapist	an adult	8	injection	1	77	1	unidentified	personal	k	No	8.10379671298179	N/A	-1	0.0273921001926782	0.00724544903191676	0.0547842003853565	-1	1	FALSE	-0.945215799614644	1	-0.303985116638684	8.40778182962048	0.05
0.05	a judge	a pedophile	8	injection	1	35	1	injection	impersonal	d	Yes	8.71899052471085	N/A	-1	0.978504237288136	0.0124912791766209	0.0429915254237287	1	1	TRUE	0.957008474576271	1	-0.138495750599349	8.8574862753102	0.05
0.05	a terrorist	an olympian	8	injection	1	108	1	unidentified	impersonal	k	No	8.45977592054629	N/A	-1	0.0354770642201835	0.0169457332632395	0.070954128440367	-1	1	FALSE	-0.929045871559633	1	0.358439269839213	8.10133665070707	0.05
0.05	a homeless adult	a pedophile	8	injection	1	87	1	injection	personal	d	Yes	7.65349490966125	N/A	-1	0.9786	0.0116893387597691	0.0428	1	1	TRUE	0.9572	1	-0.653158026037433	8.30665293569869	0.05
0.05	a terrorist	a mentor	8	injection	1	37	1	unidentified	impersonal	k	No	8.90299966186122	N/A	-1	0.0201810344827586	0.012245436241102	0.0403620689655172	-1	1	FALSE	-0.959637931034483	1	0.0678761001687676	8.83512356169245	0.05
0.05	a nun	a terrorist	8	injection	1	43	1	injection	personal	d	Yes	8.76170676846664	N/A	-1	0.963836206896552	0.0158802565528499	0.0723275862068966	1	1	TRUE	0.927672413793103	1	-0.0069117132809069	8.76861848174755	0.05
0.05	a nun	a terrorist	8	injection	1	44	1	unidentified	personal	d	Yes	8.79527937019457	N/A	-1	0.963836206896552	0.0158802565528499	0.0723275862068966	1	1	TRUE	0.927672413793103	1	0.0376605940722712	8.7576187761223	0.05
0.05	a soldier	a pedophile	8	injection	1	47	1	unidentified	personal	d	Yes	8.95892593869494	N/A	-1	0.994380341880342	0.00640743958484504	0.0112393162393163	1	1	TRUE	0.988760683760684	1	0.234162517151901	8.72476342154304	0.05
0.05	an orphan	a pedophile	8	injection	1	53	1	unidentified	impersonal	d	Yes	8.36310917603352	N/A	-1	0.994641025641026	0.00643549412442133	0.0107179487179487	1	1	TRUE	0.989282051282051	1	-0.296585778753274	8.6596949547868	0.05
0.05	a terrorist	a judge	8	injection	1	124	1	unidentified	impersonal	k	No	8.42398080969406	N/A	-1	0.0402434782608696	0.0171846890166503	0.0804869565217391	-1	1	FALSE	-0.919513043478261	1	0.472876095128589	7.95110471456547	0.05
0.05	a pedophile	a police officer	8	injection	1	83	1	injection	personal	k	No	7.9035962896143	N/A	-1	0.0178055555555556	0.0111886331793013	0.0356111111111111	-1	1	FALSE	-0.964388888888889	1	-0.443243381307365	8.34683967092167	0.05
0.05	an orphan	an assassin	8	injection	1	78	1	injection	personal	d	Yes	7.57250298502038	N/A	-1	0.960313559322034	0.0171442240573733	0.0793728813559322	1	1	TRUE	0.920627118644068	1	-0.825066284518859	8.39756926953924	0.05
0.15	an elderly person	an assassin	8	injection	1	102	1	injection	personal	d	Yes	7.88269220628903	N/A	-1	0.940308951965065	0.0109902575241113	0.119382096069869	1	1	TRUE	0.880617903930131	1	-0.276348616921066	8.15904082321009	0.15
0.15	an adult	an assassin	8	injection	1	131	1	unidentified	impersonal	d	Yes	8.01102337918644	N/A	-1	0.923914893617021	0.0114579108793681	0.152170212765957	1	1	TRUE	0.847829787234043	1	0.124012398724719	7.88701098046172	0.15
0.15	an astronaut	an assassin	8	injection	1	136	1	injection	personal	d	Yes	7.54802896993501	N/A	-1	0.938780991735537	0.0207370337972495	0.122438016528926	1	1	TRUE	0.877561983471074	1	-0.293796944674183	7.8418259146092	0.15
0.15	a mentor	a thief	8	injection	1	15	1	unidentified	impersonal	d	Yes	8.85865296954849	N/A	-1	0.916241525423729	0.0243995210740381	0.167516949152542	1	1	TRUE	0.832483050847458	1	-0.227915506973018	9.08656847652151	0.15
0.15	an assassin	a judge	8	injection	1	72	1	unidentified	personal	k	No	8.4595640785796	N/A	-1	0.099109243697479	0.0248877649223748	0.198218487394958	-1	1	FALSE	-0.801781512605042	1	0.000383567981998567	8.4591805105976	0.15
0.15	an orphan	a thief	8	injection	1	106	1	unidentified	personal	d	Yes	7.51152464839087	N/A	-1	0.940304347826087	0.0216327203755778	0.119391304347826	1	1	TRUE	0.880608695652174	1	-0.608962777229339	8.1204874256202	0.15
0.15	an assassin	an adult	8	injection	1	63	1	injection	personal	k	No	8.44698529637274	N/A	-1	0.0756769825918762	0.0114566476993782	0.151353965183752	-1	1	FALSE	-0.848646034816248	1	-0.106139049087817	8.55312434546056	0.15
0.15	a police officer	an assassin	8	injection	1	111	1	unidentified	personal	d	Yes	7.76387128782022	N/A	-1	0.926405511811024	0.0221224551383562	0.147188976377953	1	1	TRUE	0.852811023622047	1	-0.308895577317867	8.07276686513809	0.15
0.15	an orphan	a gang member	8	injection	1	88	1	unidentified	impersonal	d	Yes	7.24208235925696	N/A	-1	0.919860869565217	0.0243745213921525	0.160278260869565	1	1	TRUE	0.839721739130435	1	-1.05457862354591	8.29666098280287	0.15
0.25	a homeless adult	a gang member	8	injection	1	39	1	injection	impersonal	d	Yes	9.21562637640542	N/A	-1	0.856131147540984	0.031190410291517	0.287737704918033	1	1	TRUE	0.712262295081967	1	0.40276806865973	8.81285830774569	0.25
0.25	a gang member	an elderly person	8	injection	1	19	1	injection	impersonal	k	No	8.99230873254815	N/A	-1	0.102915384615385	0.0143650995675928	0.205830769230769	-1	1	FALSE	-0.794169230769231	1	-0.0476393862271802	9.03994811877533	0.25
0.25	a gang member	an astronaut	8	injection	1	69	1	unidentified	impersonal	k	No	8.01334318138667	N/A	-1	0.109457627118644	0.0270166342876447	0.218915254237288	-1	1	FALSE	-0.781084745762712	1	-0.476947009090493	8.49029019047716	0.25
0.25	a judge	a gang member	8	injection	1	68	1	injection	impersonal	d	Yes	8.68084148294457	N/A	-1	0.850469827586207	0.0320530926309732	0.299060344827586	1	1	TRUE	0.700939655172414	1	0.180136024540671	8.5007054584039	0.25
0.25	a gang member	a homeless adult	8	injection	1	3	1	unidentified	impersonal	k	No	8.78216942633238	N/A	-1	0.144475409836066	0.0306343531226808	0.288950819672131	-1	1	FALSE	-0.711049180327869	1	-0.446728673530972	9.22889809986335	0.25
0.25	an olympian	a thief	8	injection	1	24	1	injection	personal	d	Yes	9.12619760386375	N/A	-1	0.883486486486487	0.0278049260774758	0.233027027027027	1	1	TRUE	0.766972972972973	1	0.143955154124136	8.98224244973962	0.25
0.25	an assassin	a billionaire	8	injection	1	45	1	unidentified	personal	k	No	9.19816657104447	N/A	-1	0.133165178571429	0.0320494980680974	0.266330357142857	-1	1	FALSE	-0.733669642857143	1	0.451523505287469	8.74664306575701	0.25
0.25	a gang member	an adult	8	injection	1	138	1	unidentified	impersonal	k	No	7.61233683716775	N/A	-1	0.120613813229572	0.0154005736215283	0.241227626459144	-1	1	FALSE	-0.758772373540856	1	-0.211552746340654	7.8238895835084	0.25
0.25	a congressman	a rapist	8	injection	1	46	1	unidentified	personal	d	Yes	8.99093980694081	N/A	-1	0.889845132743363	0.0282405970224398	0.220309734513274	1	1	TRUE	0.779690265486726	1	0.255248508633498	8.73569129830731	0.25
0.25	a gang member	an olympian	8	injection	1	36	1	unidentified	impersonal	k	No	8.7551071216339	N/A	-1	0.13645	0.031449326126848	0.2729	-1	1	FALSE	-0.7271	1	-0.0911855877896386	8.84629270942354	0.25
0.25	a convict	a college student	8	injection	1	126	1	injection	personal	k	No	8.23880116587155	N/A	-1	0.147256097560976	0.03006951320686	0.294512195121951	-1	1	FALSE	-0.705487804878049	1	0.306109033906214	7.93269213196534	0.25
0.25	a nun	a thief	8	injection	1	120	1	injection	impersonal	d	Yes	8.14293601043227	N/A	-1	0.877334745762712	0.0273553221600291	0.245330508474576	1	1	TRUE	0.754669491525424	1	0.15476399071285	7.98817201971942	0.25
0.35	a convict	a nun	8	injection	1	113	1	unidentified	personal	k	No	8.23429963569625	N/A	-1	0.199283464566929	0.0331005591209099	0.398566929133858	-1	1	FALSE	-0.601433070866142	1	0.180475572941511	8.05382406275474	0.35
0.35	an addict	an elderly person	8	injection	1	20	1	injection	personal	k	No	8.99788945020072	N/A	-1	0.198282560706402	0.0185587413205587	0.396565121412804	-1	1	FALSE	-0.603434878587196	1	-0.0304670720938045	9.02835652229452	0.35
0.35	an addict	a rapist	8	injection	1	48	1	unidentified	impersonal	d	Yes	9.11415981350221	N/A	-1	0.849357142857143	0.0307966609989854	0.301285714285714	1	1	TRUE	0.698714285714286	1	0.400300430154244	8.71385938334797	0.35
0.35	a convict	an olympian	8	injection	1	17	1	injection	personal	k	No	8.75258146914688	N/A	-1	0.1928	0.034813447729426	0.3856	-1	1	FALSE	-0.6144	1	-0.310625923150303	9.06320739229719	0.35
0.35	a congressman	an assassin	8	injection	1	122	1	injection	impersonal	d	Yes	8.4013333053217	N/A	-1	0.801324324324324	0.0366327013870156	0.397351351351351	1	1	TRUE	0.602648648648649	1	0.431735412432984	7.96959789288872	0.35
0.35	an addict	a terrorist	8	injection	1	84	1	unidentified	personal	k	No	8.45829208349608	N/A	-1	0.834823008849558	0.0325704845671684	0.330353982300885	1	0	TRUE	0.669646017699115	0	0.121532030648838	8.33676005284724	0.35
0.35	a thief	a billionaire	8	injection	1	5	1	injection	impersonal	k	No	9.19502366786429	N/A	-1	0.160298165137615	0.0338538454483703	0.320596330275229	-1	1	FALSE	-0.679403669724771	1	-0.00989305640493043	9.20491672426922	0.35
0.35	an olympian	a convict	8	injection	1	93	1	injection	impersonal	d	Yes	8.26744895830485	N/A	-1	0.807945833333333	0.0359428471296803	0.384108333333333	1	1	TRUE	0.615891666666667	1	0.0204217358694567	8.24702722243539	0.35
0.35	a convict	an astronaut	8	injection	1	115	1	unidentified	impersonal	k	No	8.08425410630732	N/A	-1	0.161807086614173	0.03043716242269	0.323614173228346	-1	1	FALSE	-0.676385826771654	1	0.049290290691534	8.03496381561578	0.35
0.35	an elderly person	an addict	8	injection	1	97	1	injection	personal	d	Yes	7.67275789664251	N/A	-1	0.802487858719647	0.0192638121725438	0.395024282560706	1	1	TRUE	0.604975717439294	1	-0.534950686569159	8.20770858321167	0.35
0.35	a rapist	an addict	8	injection	1	28	1	unidentified	impersonal	k	No	9.07783702216309	N/A	-1	0.152067226890756	0.0309517032453221	0.304134453781513	-1	1	FALSE	-0.695865546218487	1	0.141307578352903	8.93652944381019	0.35
0.45	a thief	a congressman	8	injection	1	6	1	injection	impersonal	k	No	9.1376621464782	N/A	-1	0.236408256880734	0.039385576303075	0.472816513761468	-1	1	FALSE	-0.527183486238532	1	-0.0553031112638891	9.19296525774209	0.45
0.45	a congressman	a soldier	8	injection	1	67	1	unidentified	personal	k	No	8.55871893824474	N/A	-1	0.230299065420561	0.0411493344828318	0.460598130841122	-1	1	FALSE	-0.539401869158878	1	0.0475754419016781	8.51114349634306	0.45
0.45	a college student	an addict	8	injection	1	14	1	unidentified	impersonal	d	Yes	8.96123778149188	N/A	-1	0.794013513513514	0.036600195015769	0.411972972972973	1	1	TRUE	0.588027027027027	1	-0.137049555343719	9.0982873368356	0.45
0.45	a pedophile	a gang member	8	injection	1	128	1	unidentified	personal	k	No	7.84658997529119	N/A	-1	0.249423728813559	0.0348538941563495	0.498847457627119	-1	1	FALSE	-0.501152542372881	1	-0.0677698185502873	7.91435979384147	0.45
0.45	a convict	a judge	8	injection	1	33	1	injection	impersonal	k	No	8.64488255255713	N/A	-1	0.208888	0.0351877483456051	0.417776	-1	1	FALSE	-0.582224	1	-0.235064322643158	8.87994687520028	0.45
0.45	a celebrity	a gang member	8	injection	1	85	1	injection	personal	d	Yes	8.67965211911394	N/A	-1	0.776909090909091	0.0388184299897678	0.446181818181818	1	1	TRUE	0.553818181818182	1	0.352949696202163	8.32670242291178	0.45
0.45	an addict	a mentor	8	injection	1	64	1	unidentified	personal	k	No	8.39660622842712	N/A	-1	0.212395652173913	0.0378976773247652	0.424791304347826	-1	1	FALSE	-0.575208695652174	1	-0.14598850015372	8.54259472858084	0.45
0.45	an addict	an astronaut	8	injection	1	40	1	injection	personal	k	No	8.7803263909466	N/A	-1	0.231456896551724	0.0372138645901549	0.462913793103448	-1	1	FALSE	-0.537086206896552	1	-0.0214357043979962	8.8017620953446	0.45
0.45	an astronaut	an addict	8	injection	1	125	1	unidentified	impersonal	d	Yes	7.78779687818117	N/A	-1	0.768952586206897	0.0382252590118163	0.462094827586207	1	1	TRUE	0.537905172413793	1	-0.154091492607726	7.9418883707889	0.45
0.45	a gang member	a celebrity	8	injection	1	95	1	injection	personal	k	No	8.38480400337049	N/A	-1	0.222995454545455	0.0385435844374873	0.445990909090909	-1	1	FALSE	-0.554009090909091	1	0.15747903306049	8.22732497031	0.45
0.55	an addict	a judge	8	injection	1	27	1	unidentified	impersonal	k	No	8.78462153484075	N/A	-1	0.285149122807018	0.039458267150313	0.570298245614035	-1	1	FALSE	-0.429701754385965	1	-0.163298751736304	8.94792028657706	0.55
0.55	a nun	an addict	8	injection	1	89	1	injection	personal	d	Yes	7.06902342657826	N/A	-1	0.720730434782609	0.0417596024130291	0.558539130434783	1	1	TRUE	0.441460869565217	1	-1.21766740023094	8.2866908268092	0.55
0.55	a nun	an addict	8	injection	1	55	1	unidentified	impersonal	d	Yes	8.6459381473068	N/A	-1	0.720730434782609	0.0417596024130291	0.558539130434783	1	1	TRUE	0.441460869565217	1	0.00774390533802816	8.63819424196877	0.55
0.55	a thief	an addict	8	injection	1	61	1	injection	personal	k	No	9.01444713515213	N/A	-1	0.299995614035088	0.0410994654807122	0.599991228070175	-1	1	FALSE	-0.400008771929825	1	0.44019444559409	8.57425268955804	0.55
0.55	a celebrity	a convict	8	injection	1	139	1	injection	impersonal	k	No	7.71110125184016	N/A	-1	0.720033613445378	0.0402981619588129	0.559932773109244	1	0	TRUE	0.440067226890756	0	-0.10384950078553	7.81495075262569	0.55
0.55	a soldier	a homeless adult	8	injection	1	10	1	unidentified	personal	d	Yes	9.03670101556506	N/A	-1	0.719640495867769	0.0385514445817449	0.560719008264463	1	1	TRUE	0.439280991735537	1	-0.108718522699798	9.14541953826486	0.55
0.55	a gang member	a rapist	8	injection	1	32	1	injection	impersonal	d	Yes	9.23591064808771	N/A	-1	0.719247933884298	0.036496433569864	0.561504132231405	1	1	TRUE	0.438495867768595	1	0.344696631766961	8.89121401632075	0.55
0.55	a nun	an addict	8	injection	1	121	1	injection	impersonal	d	Yes	7.6275443904885	N/A	-1	0.720730434782609	0.0417596024130291	0.558539130434783	1	1	TRUE	0.441460869565217	1	-0.351330425142872	7.97887481563138	0.55
0.65	an addict	a gang member	8	injection	1	41	1	injection	impersonal	d	Yes	9.41572720170113	N/A	-1	0.671315789473684	0.0414481123356859	0.657368421052632	1	1	TRUE	0.342631578947368	1	0.625037112973381	8.79069008872775	0.65
0.65	a thief	a terrorist	8	injection	1	34	1	injection	personal	d	Yes	9.191972714618	N/A	-1	0.660591304347826	0.0387584666941251	0.678817391304348	1	1	TRUE	0.321182608695652	1	0.323268401882233	8.86870431273577	0.65
0.65	an adult	a congressman	8	injection	1	76	1	unidentified	impersonal	d	Yes	8.50309426703674	N/A	-1	0.659046442687747	0.0207459470810961	0.681907114624506	1	1	TRUE	0.318092885375494	1	0.0850775504854848	8.41801671655125	0.65
0.65	a college student	a celebrity	8	injection	1	1	1	injection	impersonal	d	Yes	8.89329814421792	N/A	-1	0.655065420560748	0.0442891008682282	0.689869158878505	1	1	TRUE	0.310130841121495	1	-0.359686302733758	9.25298444695167	0.65
0.65	a gang member	an addict	8	injection	1	114	1	injection	personal	k	No	8.36450810375059	N/A	-1	0.332521929824561	0.0399001173230231	0.665043859649123	-1	1	FALSE	-0.334956140350877	1	0.320124461447374	8.04438364230321	0.65
0.65	an olympian	an orphan	8	injection	1	22	1	unidentified	personal	k	No	9.30428598481871	N/A	-1	0.331380733944954	0.0459827561436041	0.662761467889908	-1	1	FALSE	-0.337238532110092	1	0.299036851333744	9.00524913348497	0.65
0.65	a celebrity	a college student	8	injection	1	123	1	unidentified	personal	k	No	8.01301211036892	N/A	-1	0.343182242990654	0.0455504513979304	0.686364485981308	-1	1	FALSE	-0.313635514018692	1	0.0526709031201182	7.9603412072488	0.65
0.65	an elderly person	a celebrity	8	injection	1	137	1	injection	impersonal	d	Yes	7.6377164326648	N/A	-1	0.656057906458797	0.0230968149971982	0.687884187082405	1	1	TRUE	0.312115812917595	1	-0.195131523930287	7.83284795659509	0.65
0.65	a celebrity	a college student	8	injection	1	23	1	unidentified	impersonal	k	No	8.73246584834988	N/A	-1	0.343182242990654	0.0455504513979304	0.686364485981308	-1	1	FALSE	-0.313635514018692	1	-0.261267382604691	8.99373323095457	0.65
0.65	a congressman	an astronaut	8	injection	1	52	1	injection	impersonal	k	No	8.62407255304333	N/A	-1	0.349163636363636	0.0450744284577741	0.698327272727273	-1	1	FALSE	-0.301672727272727	1	-0.0464080248655883	8.67048057790892	0.65
0.65	an addict	a thief	8	injection	1	13	1	unidentified	personal	k	No	9.54086639341985	N/A	-1	0.697947368421053	0.0404322114963336	0.604105263157895	1	0	TRUE	0.395894736842105	0	0.430834576324834	9.11003181709502	0.65
0.75	a celebrity	an adult	8	injection	1	4	1	unidentified	personal	k	No	8.93287262193137	N/A	-1	0.384555118110236	0.0215382487919876	0.769110236220472	-1	1	FALSE	-0.230889763779528	1	-0.284021697337451	9.21689431926882	0.75
0.75	a homeless adult	a police officer	8	injection	1	104	1	injection	impersonal	k	No	7.56475701290573	N/A	-1	0.390376923076923	0.0426081500247473	0.780753846153846	-1	1	FALSE	-0.219246153846154	1	-0.574965014572794	8.13972202747852	0.75
0.75	a homeless adult	a congressman	8	injection	1	74	1	unidentified	impersonal	d	Yes	8.63177109612367	N/A	-1	0.600765217391304	0.0448647417999591	0.798469565217391	1	1	TRUE	0.201530434782609	1	0.193217429810383	8.43855366631329	0.75
0.75	an olympian	an elderly person	8	injection	1	92	1	unidentified	impersonal	k	No	8.93577193866978	N/A	-1	0.393481111111111	0.0232439807670967	0.786962222222222	-1	1	FALSE	-0.213037777777778	1	0.678861273397866	8.25691066527192	0.75
0.75	a celebrity	an adult	8	injection	1	109	1	injection	impersonal	k	No	8.03333401588006	N/A	-1	0.384555118110236	0.0215382487919876	0.769110236220472	-1	1	FALSE	-0.230889763779528	1	-0.0584585682473229	8.09179258412738	0.75
0.75	a judge	a congressman	8	injection	1	80	1	injection	impersonal	d	Yes	7.52725591937378	N/A	-1	0.608263888888889	0.0457210336973376	0.783472222222222	1	1	TRUE	0.216527777777778	1	-0.849955015838629	8.37721093521241	0.75
0.75	an orphan	an astronaut	8	injection	1	60	1	injection	impersonal	d	Yes	8.5115774526306	N/A	-1	0.634205128205128	0.0425143347174985	0.731589743589744	1	1	TRUE	0.268410256410256	1	-0.0732740649085777	8.58485151753918	0.75
0.75	an astronaut	a congressman	8	injection	1	91	1	injection	personal	d	Yes	8.22335889947926	N/A	-1	0.649718181818182	0.045743949930414	0.700563636363636	1	1	TRUE	0.299436363636364	1	-0.043456815957752	8.26681571543701	0.75
0.75	an assassin	a convict	8	injection	1	94	1	injection	impersonal	k	No	8.79437027922287	N/A	-1	0.3572109375	0.0367643632213458	0.714421875	-1	1	FALSE	-0.285578125	1	0.557204939430655	8.23716533979222	0.75
0.75	a nun	a congressman	8	injection	1	2	1	injection	impersonal	d	Yes	8.95660873889395	N/A	-1	0.606163636363636	0.0473097742931552	0.787672727272727	1	1	TRUE	0.212327272727273	1	-0.28431938440619	9.24092812330014	0.75
0.75	an orphan	a billionaire	8	injection	1	105	1	unidentified	impersonal	d	Yes	8.10046489102936	N/A	-1	0.637782407407407	0.0452192495212977	0.724435185185185	1	1	TRUE	0.275564814814815	1	-0.0296293342564091	8.13009422528577	0.75
0.75	a college student	a nun	8	injection	1	29	1	injection	impersonal	k	No	8.98607118737446	N/A	-1	0.607847826086957	0.0425591530502129	0.784304347826087	1	0	TRUE	0.215695652173913	0	0.0609077378267759	8.92516344954769	0.75
0.75	a mentor	a celebrity	8	injection	1	8	1	unidentified	personal	d	Yes	8.97309789628247	N/A	-1	0.646783783783784	0.0442068218663537	0.706432432432432	1	1	TRUE	0.293567567567568	1	-0.196042585955732	9.1691404822382	0.75
0.75	an astronaut	a congressman	8	injection	1	130	1	injection	personal	d	Yes	8.23244015847034	N/A	-1	0.649718181818182	0.045743949930414	0.700563636363636	1	1	TRUE	0.299436363636364	1	0.336332807992521	7.89610735047781	0.75
0.75	a police officer	a nun	8	injection	1	110	1	injection	impersonal	d	Yes	8.59489469908009	N/A	-1	0.601044	0.0429865782531003	0.797912	1	1	TRUE	0.202088	1	0.512625361669901	8.08226933741019	0.75
0.75	an elderly person	a soldier	8	injection	1	98	1	unidentified	impersonal	k	No	8.27308133366583	N/A	-1	0.397669603524229	0.0221469536769384	0.795339207048458	-1	1	FALSE	-0.204660792951542	1	0.0751488616229619	8.19793247204287	0.75
0.75	an elderly person	a nun	8	injection	1	56	1	unidentified	personal	k	No	8.45126704130007	N/A	-1	0.621462800875274	0.0222020472397586	0.757074398249453	1	0	TRUE	0.242925601750547	0	-0.176212008433565	8.62747904973364	0.75
0.75	a homeless adult	an elderly person	8	injection	1	107	1	injection	personal	k	No	8.73101341526956	N/A	-1	0.372709956709957	0.0206808441244597	0.745419913419913	-1	1	FALSE	-0.254580086580087	1	0.620111832603618	8.11090158266595	0.75
0.75	a convict	an assassin	8	injection	1	75	1	injection	impersonal	k	No	9.01432548805023	N/A	-1	0.64228125	0.0393364673095433	0.7154375	1	0	TRUE	0.2845625	0	0.586051508907369	8.42827397914286	0.75
0.75	a soldier	an elderly person	8	injection	1	86	1	injection	personal	d	Yes	7.9755646584952	N/A	-1	0.600686123348018	0.0220919854760539	0.798627753303965	1	1	TRUE	0.201372246696035	1	-0.341102074654158	8.31666673314936	0.75
0.85	a billionaire	a celebrity	8	injection	1	26	1	unidentified	personal	d	Yes	9.31829751348127	N/A	-1	0.561480582524272	0.0473677940465163	0.877038834951456	1	1	TRUE	0.122961165048544	1	0.358961481308816	8.95933603217246	0.85
0.85	an elderly person	an orphan	8	injection	1	129	1	unidentified	personal	k	No	7.7397944584087	N/A	-1	0.433325991189427	0.0236139923285814	0.866651982378855	-1	1	FALSE	-0.133348017621145	1	-0.165429148703559	7.90522360711226	0.85
0.85	an elderly person	an orphan	8	injection	1	73	1	injection	personal	k	No	8.45340105832846	N/A	-1	0.433325991189427	0.0236139923285814	0.866651982378855	-1	1	FALSE	-0.133348017621145	1	0.00454523124096085	8.4488558270875	0.85
0.85	a homeless adult	an astronaut	8	injection	1	96	1	unidentified	personal	k	No	7.90948949267376	N/A	-1	0.438362903225806	0.0420715586688582	0.876725806451613	-1	1	FALSE	-0.123274193548387	1	-0.3080165743852	8.21750606705896	0.85
0.85	a college student	an olympian	8	injection	1	117	1	unidentified	personal	k	No	8.49146504284351	N/A	-1	0.597907407407407	0.046103595546529	0.804185185185185	1	0	TRUE	0.195814814814815	0	0.475279278908996	8.01618576393451	0.85
0.85	a celebrity	a homeless adult	8	injection	1	30	1	injection	personal	k	No	8.86375719160424	N/A	-1	0.439586206896552	0.0446129790992599	0.879172413793103	-1	1	FALSE	-0.120827586206897	1	-0.0500650579796513	8.91382224958389	0.85
0.85	an orphan	a police officer	8	injection	1	16	1	injection	personal	d	Yes	9.77041319831079	N/A	-1	0.571666666666667	0.043314841964177	0.856666666666667	1	1	TRUE	0.143333333333333	1	0.695538018046548	9.07487518026424	0.85
0.85	a mentor	a billionaire	8	injection	1	66	1	unidentified	personal	d	Yes	8.791486026749	N/A	-1	0.572822727272727	0.0468810112253462	0.854354545454545	1	1	TRUE	0.145645454545455	1	0.269881672674224	8.52160435407478	0.85
0.85	a college student	an orphan	8	injection	1	118	1	unidentified	impersonal	k	No	7.86672228513673	N/A	-1	0.428049107142857	0.04558855315649	0.856098214285714	-1	1	FALSE	-0.143901785714286	1	-0.140105164249371	8.0068274493861	0.85
0.85	an olympian	a police officer	8	injection	1	11	1	injection	impersonal	k	No	8.91126025457203	N/A	-1	0.405741525423729	0.0431914318159987	0.811483050847458	-1	1	FALSE	-0.188516949152542	1	-0.222337607043105	9.13359786161514	0.85
0.85	an assassin	a thief	8	injection	1	132	1	injection	impersonal	k	No	7.89803969076462	N/A	-1	0.445134453781513	0.0419432731095141	0.890268907563025	-1	1	FALSE	-0.109731092436975	1	0.020105237082217	7.8779344536824	0.85
0.85	a mentor	an orphan	8	injection	1	9	1	injection	impersonal	k	No	8.97449144816442	N/A	-1	0.417443965517241	0.0454680834063619	0.834887931034483	-1	1	FALSE	-0.165112068965517	1	-0.18277561147409	9.15726705963851	0.85
0.85	an elderly person	a billionaire	8	injection	1	57	1	unidentified	personal	d	Yes	8.70084719344397	N/A	-1	0.588561383928571	0.022876195567052	0.822877232142857	1	1	TRUE	0.177122767857143	1	0.0840599613360151	8.61678723210796	0.85
0.85	a police officer	an olympian	8	injection	1	58	1	injection	personal	d	Yes	8.39412119382624	N/A	-1	0.595012711864407	0.0460158576291958	0.809974576271187	1	1	TRUE	0.190025423728813	1	-0.211997544275052	8.60611873810129	0.85
0.85	a pedophile	a terrorist	8	injection	1	112	1	injection	personal	k	No	8.99887832543581	N/A	-1	0.438111111111111	0.0375297380804884	0.876222222222222	-1	1	FALSE	-0.123777777777778	1	0.93559320344305	8.06328512199276	0.85
0.85	a police officer	an astronaut	8	injection	1	103	1	injection	impersonal	d	Yes	7.61972421378267	N/A	-1	0.55552380952381	0.0420635475247269	0.888952380952381	1	1	TRUE	0.111047619047619	1	-0.52964666433182	8.14937087811449	0.85
0.95	a mentor	an adult	8	injection	1	101	1	unidentified	impersonal	d	Yes	8.67658724356649	N/A	-1	0.524970873786408	0.0216014648281736	0.950058252427185	1	1	TRUE	0.049941747572815	1	0.507855334684139	8.16873190888235	0.95
0.95	an adult	a billionaire	8	injection	1	134	1	injection	impersonal	d	Yes	7.86863689418417	N/A	-1	0.54751282051282	0.0220907314577186	0.904974358974359	1	1	TRUE	0.095025641025641	1	0.00879613740342577	7.85984075678074	0.95
0.95	an adult	a billionaire	8	injection	1	65	1	injection	personal	d	Yes	9.07783702216309	N/A	-1	0.54751282051282	0.0220907314577186	0.904974358974359	1	1	TRUE	0.095025641025641	1	0.545748940675063	8.53208808148803	0.95
0.95	a nun	a judge	8	injection	1	127	1	injection	personal	d	Yes	8.12177741916107	N/A	-1	0.497991452991453	0.0436712681429765	0.995982905982906	-1	0	FALSE	-0.00401709401709405	0	0.198261464924149	7.92351595423692	0.95
0.95	an elderly person	a college student	8	injection	1	25	1	injection	personal	d	Yes	9.16293424957891	N/A	-1	0.511972406181015	0.0232355752283679	0.976055187637969	1	1	TRUE	0.0239448123620311	1	0.192157514539584	8.97077673503933	0.95
0.95	a police officer	a college student	8	injection	1	12	1	unidentified	impersonal	d	Yes	9.03336450150698	N/A	-1	0.502933884297521	0.0454554667271223	0.994132231404959	1	1	TRUE	0.00586776859504101	1	-0.0884374718035001	9.12180197331048	0.95
0.95	an astronaut	an adult	8	injection	1	133	1	injection	impersonal	d	Yes	8.10591119798651	N/A	-1	0.484770348837209	0.0221130675149074	0.969540697674419	-1	0	FALSE	-0.030459302325581	0	0.237033471133595	7.86887772685291	0.95
0.95	a judge	a billionaire	8	injection	1	50	1	unidentified	impersonal	d	Yes	8.85194967125395	N/A	-1	0.492715596330275	0.0460311336715175	0.98543119266055	-1	0	FALSE	-0.01456880733945	0	0.159827056485261	8.69212261476869	0.95
0.95	an elderly person	a police officer	8	injection	1	42	1	injection	personal	k	No	8.7677962556266	N/A	-1	0.512845572354212	0.0238047813239154	0.974308855291577	1	0	TRUE	0.025691144708423	0	-0.0118459794649404	8.77964223509154	0.95
0.95	an adult	a police officer	8	injection	1	116	1	unidentified	personal	k	No	7.84854348245668	N/A	-1	0.467562260536398	0.0218380840913308	0.935124521072797	-1	1	FALSE	-0.064875478927203	1	-0.177021055311596	8.02556453776828	0.95
0.95	a police officer	a college student	8	injection	1	51	1	unidentified	personal	d	Yes	8.42792472365806	N/A	-1	0.502933884297521	0.0454554667271223	0.994132231404959	1	1	TRUE	0.00586776859504101	1	-0.253365057061409	8.68128978071946	0.95
0.95	a police officer	a college student	8	injection	1	38	1	unidentified	impersonal	d	Yes	8.94298366598565	N/A	-1	0.502933884297521	0.0454554667271223	0.994132231404959	1	1	TRUE	0.00586776859504101	1	0.119004887135585	8.82397877885006	0.95
0.95	an astronaut	a mentor	8	injection	1	79	1	unidentified	impersonal	k	No	8.62173337069016	N/A	-1	0.452226890756303	0.043377480891434	0.904453781512605	-1	1	FALSE	-0.095546218487395	1	0.234354383087419	8.38737898760274	0.95
0.95	a police officer	an adult	8	injection	1	100	1	unidentified	personal	d	Yes	7.88495294575981	N/A	-1	0.532844827586207	0.022129829931597	0.934310344827586	1	1	TRUE	0.065689655172414	1	-0.293491235589283	8.1784441813491	0.95
0.95	a college student	an elderly person	8	injection	1	18	1	injection	personal	d	Yes	9.42875274891449	N/A	-1	0.48883995584989	0.0233868940027486	0.977679911699779	-1	0	FALSE	-0.022320088300221	0	0.377187691939087	9.0515650569754	0.95
0.95	a nun	an olympian	8	injection	1	49	1	unidentified	personal	d	Yes	8.45425339164236	N/A	-1	0.487022321428571	0.0462068625704722	0.974044642857143	-1	0	FALSE	-0.025955357142857	0	-0.248725740077191	8.70297913171955	0.95
0.95	a nun	a judge	8	injection	1	70	1	injection	impersonal	d	Yes	8.94676537486763	N/A	-1	0.497991452991453	0.0436712681429765	0.995982905982906	-1	0	FALSE	-0.00401709401709405	0	0.466867731976325	8.47989764289131	0.95
0.05	a pedophile	an astronaut	32	injection	1	161	1	unidentified	impersonal	k	No	7.68845535654994	N/A	-1	0.00911666666666667	0.00849920014293912	0.0182333333333333	-1	1	FALSE	-0.981766666666667	1	0.54137890242338	7.14707645412656	0.05
0.05	a judge	a rapist	32	injection	1	10	1	injection	personal	d	Yes	8.5387589693308	N/A	-1	0.961768595041322	0.0160326049765369	0.0764628099173554	1	1	TRUE	0.923537190082645	1	0.607848357158766	7.93091061217203	0.05
0.05	a pedophile	an elderly person	32	injection	1	77	1	unidentified	personal	k	No	7.45240245122364	N/A	-1	0.0110971615720524	0.00495209206236316	0.0221943231441049	-1	1	FALSE	-0.977805676855895	1	0.132706405435254	7.31969604578838	0.05
0.05	a homeless adult	a rapist	32	injection	1	125	1	injection	impersonal	d	Yes	7.35179986905778	N/A	-1	0.963688976377953	0.015761459972695	0.0726220472440946	1	1	TRUE	0.927377952755905	1	0.163447427882673	7.1883524411751	0.05
0.05	a pedophile	an orphan	32	injection	1	178	1	injection	impersonal	k	No	7.49886973397693	N/A	-1	0.00503418803418803	0.00596803136640785	0.0100683760683761	-1	1	FALSE	-0.989931623931624	1	0.362979997381161	7.13588973659577	0.05
0.05	a terrorist	a judge	32	injection	1	72	1	injection	personal	k	No	7.96415571884094	N/A	-1	0.0402434782608696	0.0171846890166503	0.0804869565217391	-1	1	FALSE	-0.919513043478261	1	0.621920339864102	7.34223537897684	0.05
0.05	a police officer	a rapist	32	injection	1	15	1	unidentified	personal	d	Yes	7.28276117960559	N/A	-1	0.971612403100775	0.0143467015635418	0.0567751937984495	1	1	TRUE	0.94322480620155	1	-0.568782344930495	7.85154352453609	0.05
0.05	a pedophile	a college student	32	injection	1	89	1	injection	impersonal	k	No	7.37400185935016	N/A	-1	0.0088448275862069	0.00793933304680029	0.0176896551724138	-1	1	FALSE	-0.982310344827586	1	0.099918827188267	7.27408303216189	0.05
0.05	a pedophile	an elderly person	32	injection	1	36	1	unidentified	personal	k	No	7.19443685110033	N/A	-1	0.0110971615720524	0.00495209206236316	0.0221943231441049	-1	1	FALSE	-0.977805676855895	1	-0.39926240695609	7.59369925805643	0.05
0.05	a rapist	an astronaut	32	injection	1	124	1	injection	personal	k	No	6.63068338564237	N/A	-1	0.0203780487804878	0.0116653678110918	0.0407560975609756	-1	1	FALSE	-0.959243902439024	1	-0.559301751975106	7.18998513761748	0.05
0.05	an astronaut	a pedophile	32	injection	1	137	1	injection	impersonal	d	Yes	8.16166045205628	N/A	-1	0.9910125	0.00847226427236484	0.0179750000000001	1	1	TRUE	0.982025	1	0.990520260405547	7.17114019165073	0.05
0.05	a terrorist	an adult	32	injection	1	6	1	unidentified	personal	k	No	8.14902386805177	N/A	-1	0.0294873294346979	0.0074446219319342	0.0589746588693957	-1	1	FALSE	-0.941025341130604	1	0.148555894709965	8.00046797334181	0.05
0.05	a rapist	a nun	32	injection	1	53	1	unidentified	impersonal	k	No	7.53315880745556	N/A	-1	0.0346598360655738	0.0154679294943192	0.0693196721311475	-1	1	FALSE	-0.930680327868852	1	0.0810125778636213	7.45214622959194	0.05
0.05	an assassin	an orphan	32	injection	1	78	1	unidentified	personal	k	No	7.09090982207998	N/A	-1	0.0396694915254237	0.0163164667141698	0.0793389830508474	-1	1	FALSE	-0.920661016949153	1	-0.22454648738516	7.31545630946514	0.05
0.05	a terrorist	an orphan	32	injection	1	18	1	unidentified	impersonal	k	No	7.6980291702728	N/A	-1	0.0126008771929825	0.00957873112088086	0.0252017543859649	-1	1	FALSE	-0.974798245614035	1	-0.109620731543285	7.80764990181609	0.05
0.05	an adult	a rapist	32	injection	1	12	1	unidentified	impersonal	d	Yes	8.41516046585109	N/A	-1	0.972573217726397	0.00708948483114052	0.0548535645472061	1	1	TRUE	0.945146435452794	1	0.516966621840902	7.89819384401018	0.05
0.05	a terrorist	an elderly person	32	injection	1	95	1	unidentified	personal	k	No	7.0475172213573	N/A	-1	0.0225253303964758	0.00691004990636207	0.0450506607929515	-1	1	FALSE	-0.954949339207048	1	-0.207603378669587	7.25512060002688	0.05
0.05	a police officer	a pedophile	32	injection	1	103	1	injection	impersonal	d	Yes	7.0335064842877	N/A	-1	0.982087301587302	0.0113453053971102	0.0358253968253968	1	1	TRUE	0.964174603174603	1	-0.199670032051564	7.23317651633926	0.05
0.05	a terrorist	an astronaut	32	injection	1	35	1	unidentified	impersonal	k	No	6.82979373751242	N/A	-1	0.021957264957265	0.0127231486789184	0.0439145299145299	-1	1	FALSE	-0.95608547008547	1	-0.773852325214618	7.60364606272704	0.05
0.05	a terrorist	an astronaut	32	injection	1	58	1	unidentified	impersonal	k	No	7.27724772663148	N/A	-1	0.021957264957265	0.0127231486789184	0.0439145299145299	-1	1	FALSE	-0.95608547008547	1	-0.141748927523546	7.41899665415503	0.05
0.05	a judge	a pedophile	32	injection	1	32	1	injection	personal	d	Yes	7.42714413340862	N/A	-1	0.978504237288136	0.0124912791766209	0.0429915254237287	1	1	TRUE	0.957008474576271	1	-0.20758328715367	7.63472742056229	0.05
0.05	a terrorist	a nun	32	injection	1	180	1	injection	personal	k	No	6.62140565176413	N/A	-1	0.0365603448275862	0.0160409270081939	0.0731206896551724	-1	1	FALSE	-0.926879310344828	1	-0.513404165216405	7.13480981698054	0.05
0.05	a judge	a terrorist	32	injection	1	162	1	unidentified	personal	d	Yes	7.50439155916124	N/A	-1	0.958986956521739	0.0173234471756892	0.0820260869565217	1	1	TRUE	0.917973913043478	1	0.358085386351954	7.14630617280928	0.05
0.05	a terrorist	a police officer	32	injection	1	163	1	unidentified	personal	k	No	7.60489448081162	N/A	-1	0.0318617886178862	0.0154429755730561	0.0637235772357724	-1	1	FALSE	-0.936276422764228	1	0.459343107552184	7.14555137325944	0.05
0.05	an astronaut	a rapist	32	injection	1	20	1	injection	impersonal	k	No	7.57044325205737	N/A	-1	0.980134146341463	0.0120100867283966	0.0397317073170731	1	0	TRUE	0.960268292682927	0	-0.209394885408814	7.77983813746619	0.05
0.05	an olympian	a terrorist	32	injection	1	28	1	injection	personal	d	Yes	7.3004728142678	N/A	-1	0.964811926605505	0.0167050724060643	0.0703761467889907	1	1	TRUE	0.929623853211009	1	-0.378753887387131	7.67922670165493	0.05
0.05	an olympian	a terrorist	32	injection	1	25	1	unidentified	impersonal	d	Yes	7.30988148582479	N/A	-1	0.964811926605505	0.0167050724060643	0.0703761467889907	1	1	TRUE	0.929623853211009	1	-0.405173342993001	7.71505482881779	0.05
0.05	an olympian	a terrorist	32	injection	1	154	1	injection	impersonal	d	Yes	7.06902342657826	N/A	-1	0.964811926605505	0.0167050724060643	0.0703761467889907	1	1	TRUE	0.929623853211009	1	-0.0839059980289845	7.15292942460724	0.05
0.05	a soldier	an assassin	32	injection	1	176	1	injection	impersonal	d	Yes	7.48436864328613	N/A	-1	0.963779661016949	0.0165172137857475	0.0724406779661018	1	1	TRUE	0.927559322033898	1	0.347354232073585	7.13701441121255	0.05
0.05	a pedophile	a mentor	32	injection	1	29	1	injection	personal	k	No	7.78030308790837	N/A	-1	0.00887083333333333	0.007982216594028	0.0177416666666667	-1	1	FALSE	-0.982258333333333	1	0.112542274728845	7.66776081317953	0.05
0.05	a pedophile	a police officer	32	injection	1	109	1	unidentified	impersonal	k	No	7.71912984090673	N/A	-1	0.0178055555555556	0.0111886331793013	0.0356111111111111	-1	1	FALSE	-0.964388888888889	1	0.500224041516251	7.21890579939048	0.05
