overlapRound	Item1	Item2	sn	cond	sess	trial	trial_type	title	typeOfScen	keybResp	keyDef	keybRT	rtBeep	rtDeadline	averageP	sdP	overlap	direct.xVy	correct	targetPresent	dirOverlap	correct01	res.RT	fit.RT	overlapRoundSN
0.05	a mentor	a rapist	49	injection	1	91	1	unidentified	personal	k	Yes	8.25945819533241	N/A	-1	0.950279069767442	0.0195449724178816	0.0994418604651164	1	1	TRUE	0.900558139534884	1	0.37410328044595	7.88535491488646	0.05
0.05	a mentor	a rapist	49	injection	1	69	1	unidentified	personal	k	Yes	8.90490157793514	N/A	-1	0.950279069767442	0.0195449724178816	0.0994418604651164	1	1	TRUE	0.900558139534884	1	0.853666653119962	8.05123492481518	0.05
0.05	a mentor	a terrorist	49	injection	1	71	1	unidentified	personal	k	Yes	7.94058382710424	N/A	-1	0.95297520661157	0.0189202799156536	0.0940495867768594	1	1	TRUE	0.905950413223141	1	-0.0938457470099765	8.03442957411422	0.05
0.05	a pedophile	a college student	49	injection	1	80	1	injection	personal	d	No	7.72665366484764	N/A	-1	0.961213114754098	0.0176425906742174	0.0775737704918034	-1	1	FALSE	-0.922426229508197	1	-0.236593994040684	7.96324765888833	0.05
0.05	an elderly person	a terrorist	49	injection	1	118	1	unidentified	personal	k	Yes	7.72841577984104	N/A	-1	0.0362586206896552	0.0177171171099633	0.0725172413793104	1	1	TRUE	0.92748275862069	1	-0.00155559903097391	7.72997137887202	0.05
0.05	an orphan	a terrorist	49	injection	1	63	1	injection	personal	k	Yes	7.97831096986772	N/A	-1	0.029864406779661	0.0160637756380309	0.059728813559322	1	1	TRUE	0.940271186440678	1	-0.125632928419207	8.10394389828693	0.05
0.05	an olympian	a pedophile	49	injection	1	101	1	unidentified	impersonal	k	Yes	7.78779687818117	N/A	-1	0.0391949152542373	0.0182843377994394	0.0783898305084746	1	1	TRUE	0.921610169491525	1	-0.0345290310539719	7.82232590923514	0.05
0.05	an orphan	a pedophile	49	injection	1	19	1	unidentified	personal	k	Yes	7.63482067774554	N/A	-1	0.0286747967479675	0.0146488578211018	0.0573495934959349	1	1	TRUE	0.942650406504065	1	-0.983967769206741	8.61878844695228	0.05
0.05	a mentor	a terrorist	49	injection	1	56	1	unidentified	personal	k	Yes	8.18032087477368	N/A	-1	0.95297520661157	0.0189202799156536	0.0940495867768594	1	1	TRUE	0.905950413223141	1	0.0102874271263431	8.17003344764734	0.05
0.05	a terrorist	a college student	49	injection	1	110	1	injection	personal	d	No	7.77904864492556	N/A	-1	0.954008547008547	0.0198968379250805	0.091982905982906	-1	1	FALSE	-0.908017094017094	1	0.00777731557835182	7.7712713293472	0.05
0.05	an astronaut	a terrorist	49	injection	1	18	1	injection	personal	k	Yes	8.02224091680654	N/A	-1	0.0457317073170732	0.0179179913546918	0.0914634146341463	1	1	TRUE	0.908536585365854	1	-0.611413249864514	8.63365416667105	0.05
0.05	a terrorist	an adult	49	injection	1	132	1	unidentified	personal	d	No	7.85321638815607	N/A	-1	0.0409230769230769	0.018282671881899	0.0818461538461539	-1	1	FALSE	-0.918153846153846	1	0.187271223718218	7.66594516443785	0.05
0.05	a pedophile	a mentor	49	injection	1	60	1	injection	impersonal	d	No	7.12447826249342	N/A	-1	0.961666666666667	0.0173950872145792	0.0766666666666667	-1	1	FALSE	-0.923333333333333	1	-1.00716340860371	8.13164167109714	0.05
0.05	a pedophile	an adult	49	injection	1	99	1	unidentified	personal	d	No	7.27931883541462	N/A	-1	0.034344262295082	0.015825463196448	0.0686885245901639	-1	1	FALSE	-0.931311475409836	1	-0.55506055843363	7.83437939384825	0.05
0.05	an astronaut	a rapist	49	injection	1	65	1	unidentified	impersonal	k	Yes	7.3178761986265	N/A	-1	0.0476384615384615	0.0184543359451891	0.095276923076923	1	1	TRUE	0.904723076923077	1	-0.768107358895587	8.08598355752208	0.05
0.05	an astronaut	a rapist	49	injection	1	23	1	injection	impersonal	k	Yes	8.372398606513	N/A	-1	0.0476384615384615	0.0184543359451891	0.095276923076923	1	1	TRUE	0.904723076923077	1	-0.188546771205264	8.56094537771827	0.05
0.05	an astronaut	a rapist	49	injection	1	52	1	unidentified	personal	k	Yes	8.63533171943328	N/A	-1	0.0476384615384615	0.0184543359451891	0.095276923076923	1	1	TRUE	0.904723076923077	1	0.425167004821807	8.21016471461147	0.05
0.05	an astronaut	a terrorist	49	injection	1	134	1	unidentified	impersonal	k	Yes	7.81520706218909	N/A	-1	0.0457317073170732	0.0179179913546918	0.0914634146341463	1	1	TRUE	0.908536585365854	1	0.157624552348618	7.65758250984047	0.05
0.15	a mentor	an assassin	49	injection	1	115	1	injection	impersonal	k	Yes	8.10198073185319	N/A	-1	0.900732283464567	0.0279379356743691	0.198535433070866	1	1	TRUE	0.801464566929134	1	0.356949152561438	7.74503157929175	0.15
0.15	an assassin	a mentor	49	injection	1	67	1	injection	impersonal	d	No	7.34342622914737	N/A	-1	0.900732283464567	0.0279379356743691	0.198535433070866	-1	1	FALSE	-0.801464566929134	1	-0.724990545172485	8.06841677431985	0.15
0.15	a gang member	a soldier	49	injection	1	55	1	unidentified	impersonal	d	No	8.60886037994206	N/A	-1	0.0983361344537815	0.0267793798426612	0.196672268907563	-1	1	FALSE	-0.803327731092437	1	0.428960211920808	8.17990016802125	0.15
0.15	a terrorist	a police officer	49	injection	1	47	1	unidentified	impersonal	d	No	8.43141741439483	N/A	-1	0.935637795275591	0.0224759664173576	0.128724409448819	-1	1	FALSE	-0.871275590551181	1	0.168522051057865	8.26289536333697	0.15
0.15	an olympian	a terrorist	49	injection	1	36	1	unidentified	personal	k	Yes	8.81655676864186	N/A	-1	0.0506371681415929	0.0198943284222663	0.101274336283186	1	1	TRUE	0.898725663716814	1	0.426841249856819	8.38971551878504	0.15
0.15	a college student	a rapist	49	injection	1	68	1	injection	personal	k	Yes	7.27100853828099	N/A	-1	0.949314516129032	0.0189770116563248	0.101370967741935	1	1	TRUE	0.898629032258065	1	-0.788769726135233	8.05977826441623	0.15
0.15	a police officer	a terrorist	49	injection	1	24	1	injection	impersonal	k	Yes	7.86633892304654	N/A	-1	0.935637795275591	0.0224759664173576	0.128724409448819	1	1	TRUE	0.871275590551181	1	-0.68054176632551	8.54688068937205	0.15
0.15	an assassin	a college student	49	injection	1	59	1	injection	personal	d	No	7.96901178110648	N/A	-1	0.902647540983607	0.0261808886903617	0.194704918032787	-1	1	FALSE	-0.805295081967213	1	-0.172068937210802	8.14108071831728	0.15
0.15	a rapist	a homeless adult	49	injection	1	138	1	injection	impersonal	d	No	7.05098944706805	N/A	-1	0.910634328358209	0.024718673677556	0.178731343283582	-1	1	FALSE	-0.821268656716418	1	-0.590413480387886	7.64140292745593	0.15
0.15	a rapist	a nun	49	injection	1	105	1	injection	impersonal	d	No	7.10496544826984	N/A	-1	0.926565891472868	0.0231368782695567	0.146868217054264	-1	1	FALSE	-0.853131782945736	1	-0.694040073276497	7.79900552154634	0.15
0.15	a thief	a soldier	49	injection	1	123	1	unidentified	impersonal	d	No	7.72312009226633	N/A	-1	0.906613445378151	0.025824002044797	0.186773109243697	-1	1	FALSE	-0.813226890756303	1	0.0171630376620211	7.70595705460431	0.15
0.15	a nun	a rapist	49	injection	1	93	1	unidentified	personal	k	Yes	7.99598047476376	N/A	-1	0.926565891472868	0.0231368782695567	0.146868217054264	1	1	TRUE	0.853131782945736	1	0.123796050123846	7.87218442463991	0.15
0.15	a judge	a rapist	49	injection	1	70	1	unidentified	personal	k	Yes	7.14991683613211	N/A	-1	0.929198412698413	0.0221520285232864	0.141603174603175	1	1	TRUE	0.858396825396825	1	-0.892868870895157	8.04278570702727	0.15
0.15	a terrorist	a judge	49	injection	1	30	1	unidentified	impersonal	d	No	8.11999382772511	N/A	-1	0.928949579831933	0.0235531555332125	0.142100840336134	-1	1	FALSE	-0.857899159663866	1	-0.34569359607119	8.46568742379629	0.15
0.15	an olympian	a rapist	49	injection	1	135	1	unidentified	personal	k	Yes	7.26403014289953	N/A	-1	0.0517416666666667	0.0204622761786923	0.103483333333333	1	1	TRUE	0.896516666666667	1	-0.389440010470865	7.65347015337039	0.15
0.15	an elderly person	a thief	49	injection	1	11	1	unidentified	impersonal	k	Yes	8.88155848863898	N/A	-1	0.0895086206896552	0.0267379426677014	0.17901724137931	1	1	TRUE	0.82098275862069	1	0.139102734052342	8.74245575458663	0.15
0.15	a nun	a terrorist	49	injection	1	121	1	injection	impersonal	k	Yes	7.22475340576797	N/A	-1	0.924688524590164	0.0232050767994503	0.150622950819672	1	1	TRUE	0.849377049180328	1	-0.49065006291949	7.71540346868746	0.15
0.15	a billionaire	a pedophile	49	injection	1	137	1	injection	personal	k	Yes	7.36770857237437	N/A	-1	0.911060344827586	0.0267549087908591	0.177879310344828	1	1	TRUE	0.822120689655172	1	-0.27767228618694	7.64538085856131	0.15
0.25	a celebrity	a terrorist	49	injection	1	76	1	unidentified	impersonal	k	Yes	7.36707705988101	N/A	-1	0.869756756756757	0.0320026196194734	0.260486486486486	1	1	TRUE	0.739513513513514	1	-0.626932622617683	7.9940096824987	0.25
0.25	an assassin	a judge	49	injection	1	108	1	unidentified	personal	d	No	7.26332961747684	N/A	-1	0.861274193548387	0.0316994440123548	0.277451612903226	-1	1	FALSE	-0.722548387096774	1	-0.518851394810189	7.78218101228703	0.25
0.25	an assassin	an adult	49	injection	1	58	1	injection	personal	d	No	7.5595594960077	N/A	-1	0.891219512195122	0.0287833976459904	0.217560975609756	-1	1	FALSE	-0.782439024390244	1	-0.591065417753014	8.15062491376071	0.25
0.25	an assassin	a homeless adult	49	injection	1	87	1	injection	impersonal	d	No	8.27333659850449	N/A	-1	0.851590909090909	0.0323140421403737	0.296818181818182	-1	1	FALSE	-0.703181818181818	1	0.360748897091237	7.91258770141325	0.25
0.25	an addict	a rapist	49	injection	1	12	1	unidentified	impersonal	k	Yes	9.03634406392822	N/A	-1	0.141479674796748	0.0313353744902551	0.282959349593496	1	1	TRUE	0.717040650406504	1	0.309952694126284	8.72639136980193	0.25
0.25	a thief	an adult	49	injection	1	73	1	unidentified	personal	d	No	7.30586003268401	N/A	-1	0.105282051282051	0.0286804498462789	0.210564102564103	-1	1	FALSE	-0.789435897435897	1	-0.712132439469483	8.01799247215349	0.25
0.25	a pedophile	a congressman	49	injection	1	64	1	injection	impersonal	d	No	7.65349490966125	N/A	-1	0.873739130434783	0.0300818889519302	0.252521739130435	-1	1	FALSE	-0.747478260869565	1	-0.441419077059551	8.0949139867208	0.25
0.25	a college student	a gang member	49	injection	1	129	1	injection	personal	k	Yes	7.54750168281497	N/A	-1	0.858273504273504	0.0315045829003627	0.283452991452992	1	1	TRUE	0.716547008547008	1	-0.131340058038741	7.67884174085371	0.25
0.25	an orphan	a gang member	49	injection	1	57	1	unidentified	personal	k	Yes	8.6044711995233	N/A	-1	0.101254237288136	0.0277651098253917	0.202508474576271	1	1	TRUE	0.797491525423729	1	0.44419577077543	8.16027542874787	0.25
0.25	an assassin	an adult	49	injection	1	51	1	injection	impersonal	d	No	8.44548234386224	N/A	-1	0.891219512195122	0.0287833976459904	0.217560975609756	-1	1	FALSE	-0.782439024390244	1	0.225003858309011	8.22047848555323	0.25
0.35	a soldier	an addict	49	injection	1	41	1	injection	impersonal	k	Yes	8.32142158689788	N/A	-1	0.81148717948718	0.0363332669184672	0.377025641025641	1	1	TRUE	0.622974358974359	1	-0.00872964677486898	8.33015123367275	0.35
0.35	a soldier	an addict	49	injection	1	79	1	unidentified	impersonal	k	Yes	8.93813787037279	N/A	-1	0.81148717948718	0.0363332669184672	0.377025641025641	1	1	TRUE	0.622974358974359	1	0.967327024272594	7.97081084610019	0.35
0.35	a terrorist	a congressman	49	injection	1	117	1	unidentified	impersonal	d	No	8.19946419761216	N/A	-1	0.844918181818182	0.0347030985482637	0.310163636363636	-1	1	FALSE	-0.689836363636364	1	0.464528261009347	7.73493593660281	0.35
0.35	a billionaire	an assassin	49	injection	1	120	1	injection	impersonal	k	Yes	8.07961802938984	N/A	-1	0.829521367521368	0.0366999445759961	0.340957264957265	1	1	TRUE	0.659042735042735	1	0.359412285227114	7.72020574416273	0.35
0.35	a judge	a thief	49	injection	1	13	1	unidentified	impersonal	d	No	8.6159519634395	N/A	-1	0.827621848739496	0.0340561759999284	0.344756302521008	1	0	TRUE	0.655243697478992	0	-0.0945520026054556	8.71050396604496	0.35
0.35	a gang member	a homeless adult	49	injection	1	27	1	unidentified	personal	d	No	8.29129585190541	N/A	-1	0.160920634920635	0.0318311457321075	0.32184126984127	-1	1	FALSE	-0.67815873015873	1	-0.21431366534787	8.50560951725328	0.35
0.45	an assassin	a pedophile	49	injection	1	82	1	unidentified	impersonal	k	Yes	9.14398687142616	N/A	-1	0.2419140625	0.0371898268010869	0.483828125	1	1	TRUE	0.516171875	1	1.19561653445735	7.94837033696882	0.45
0.45	an assassin	a pedophile	49	injection	1	96	1	unidentified	personal	k	Yes	7.56734567601324	N/A	-1	0.2419140625	0.0371898268010869	0.483828125	1	1	TRUE	0.516171875	1	-0.285622155702442	7.85296783171568	0.45
0.45	a billionaire	a gang member	49	injection	1	45	1	unidentified	personal	k	Yes	8.02812905943176	N/A	-1	0.777558558558559	0.0391994927445522	0.444882882882883	1	1	TRUE	0.555117117117117	1	-0.256690089672626	8.28481914910438	0.45
0.45	an addict	an astronaut	49	injection	1	77	1	injection	impersonal	d	No	7.51969240411654	N/A	-1	0.241107438016529	0.0378334440471577	0.482214876033058	-1	1	FALSE	-0.517785123966942	1	-0.466498510022126	7.98619091413867	0.45
0.45	an assassin	a celebrity	49	injection	1	43	1	unidentified	impersonal	d	No	9.04192172035122	N/A	-1	0.797811965811966	0.0356821925988365	0.404376068376068	-1	1	FALSE	-0.595623931623932	1	0.734687615776314	8.3072341045749	0.45
0.45	a pedophile	an assassin	49	injection	1	25	1	unidentified	personal	d	No	7.93522953981691	N/A	-1	0.2419140625	0.0371898268010869	0.483828125	-1	1	FALSE	-0.516171875	1	-0.597741411618271	8.53297095143518	0.45
0.55	a convict	a billionaire	49	injection	1	88	1	unidentified	impersonal	d	No	7.70796153183549	N/A	-1	0.735190082644628	0.0412156533418797	0.529619834710744	-1	1	FALSE	-0.470380165289256	1	-0.197704425665588	7.90566595750108	0.55
0.55	a judge	a soldier	49	injection	1	49	1	injection	personal	d	No	8.77601271918292	N/A	-1	0.293983333333333	0.0429658288799393	0.587966666666667	-1	1	FALSE	-0.412033333333333	1	0.53456073471002	8.2414519844729	0.55
0.55	a congressman	an orphan	49	injection	1	5	1	unidentified	personal	d	No	8.72566970568704	N/A	-1	0.258554545454545	0.0403294277635509	0.517109090909091	-1	1	FALSE	-0.482890909090909	1	-0.11700091525892	8.84267062094596	0.55
0.55	an addict	a college student	49	injection	1	83	1	unidentified	personal	d	No	7.91388671485608	N/A	-1	0.747678260869565	0.0402676819808396	0.50464347826087	-1	1	FALSE	-0.49535652173913	1	-0.0271676615716601	7.94105437642774	0.55
0.55	a soldier	a judge	49	injection	1	9	1	injection	impersonal	d	No	9.01796847932873	N/A	-1	0.293983333333333	0.0429658288799393	0.587966666666667	1	0	TRUE	0.412033333333333	0	0.242845104060013	8.77512337526871	0.55
0.55	a congressman	an elderly person	49	injection	1	104	1	unidentified	personal	d	No	7.16239749735572	N/A	-1	0.266703703703704	0.0411379243175607	0.533407407407407	-1	1	FALSE	-0.466592592592593	1	-0.642341602065009	7.80473909942073	0.55
0.55	a thief	a congressman	49	injection	1	111	1	injection	impersonal	d	No	7.32778053842163	N/A	-1	0.730127272727273	0.0437295808713659	0.539745454545455	-1	1	FALSE	-0.460254545454545	1	-0.438125926850225	7.76590646527186	0.55
0.55	an olympian	an addict	49	injection	1	136	1	injection	personal	k	Yes	7.59890045687141	N/A	-1	0.263972972972973	0.040312090485972	0.527945945945946	1	1	TRUE	0.472054054054054	1	-0.0505026457834825	7.64940310265489	0.55
0.55	a congressman	an orphan	49	injection	1	20	1	unidentified	impersonal	d	No	7.45818615734049	N/A	-1	0.258554545454545	0.0403294277635509	0.517109090909091	-1	1	FALSE	-0.482890909090909	1	-1.14590034525006	8.60408650259055	0.55
0.55	a pedophile	a convict	49	injection	1	7	1	injection	personal	d	No	8.6044711995233	N/A	-1	0.702255639097744	0.0415051708328112	0.595488721804511	-1	1	FALSE	-0.404511278195489	1	-0.204051665718758	8.80852286524206	0.55
0.55	a soldier	a celebrity	49	injection	1	35	1	injection	impersonal	d	No	8.30696586536857	N/A	-1	0.270929203539823	0.0404238262219043	0.541858407079646	1	0	TRUE	0.458141592920354	0	-0.0950635677634661	8.40202943313204	0.55
0.55	a rapist	an assassin	49	injection	1	3	1	injection	impersonal	d	No	8.5358186555394	N/A	-1	0.268763358778626	0.038158566577316	0.537526717557252	-1	1	FALSE	-0.462473282442748	1	-0.341764750618081	8.87758340615748	0.55
0.55	a thief	a congressman	49	injection	1	89	1	unidentified	impersonal	d	No	7.28138566357028	N/A	-1	0.730127272727273	0.0437295808713659	0.539745454545455	-1	1	FALSE	-0.460254545454545	1	-0.617434806742281	7.89882047031256	0.55
0.55	an addict	an olympian	49	injection	1	31	1	injection	personal	d	No	8.04846874366888	N/A	-1	0.263972972972973	0.040312090485972	0.527945945945946	-1	1	FALSE	-0.472054054054054	1	-0.404203446883889	8.45267219055277	0.55
0.55	an olympian	an addict	49	injection	1	2	1	unidentified	impersonal	k	Yes	8.21121136179302	N/A	-1	0.263972972972973	0.040312090485972	0.527945945945946	1	1	TRUE	0.472054054054054	1	-0.684120664181327	8.89533202597435	0.55
0.65	an addict	a billionaire	49	injection	1	15	1	injection	personal	d	No	8.96992349199152	N/A	-1	0.665	0.0451950509514715	0.67	-1	1	FALSE	-0.33	1	0.290671168083206	8.67925232390831	0.65
0.65	a terrorist	a convict	49	injection	1	46	1	injection	personal	d	No	8.29229810706322	N/A	-1	0.6673125	0.0424776671177487	0.665375	-1	1	FALSE	-0.334625	1	0.0185015687915815	8.27379653827164	0.65
0.65	an elderly person	a nun	49	injection	1	32	1	unidentified	personal	d	No	8.45361420977337	N/A	-1	0.321791666666667	0.0436448778377553	0.643583333333333	1	0	TRUE	0.356416666666667	0	0.0138138638820884	8.43980034589128	0.65
0.65	a police officer	a congressman	49	injection	1	40	1	injection	personal	d	No	8.98205864280585	N/A	-1	0.317361344537815	0.0433028380272686	0.63472268907563	1	0	TRUE	0.36527731092437	0	0.640257023488207	8.34180161931764	0.65
0.65	a gang member	a pedophile	49	injection	1	97	1	unidentified	personal	k	Yes	7.95787735848981	N/A	-1	0.664211382113821	0.0446065924835502	0.671577235772358	1	1	TRUE	0.328422764227642	1	0.111174439693197	7.84670291879662	0.65
0.65	a congressman	an adult	49	injection	1	85	1	unidentified	impersonal	d	No	8.40893960597598	N/A	-1	0.314082568807339	0.0456033290583103	0.628165137614679	-1	1	FALSE	-0.371834862385321	1	0.482276239194174	7.92666336678181	0.65
0.65	a soldier	an olympian	49	injection	1	75	1	unidentified	personal	d	No	7.58731050602262	N/A	-1	0.664324561403509	0.0451018367781097	0.671350877192982	1	0	TRUE	0.328649122807018	0	-0.414605043627142	8.00191554964976	0.65
0.65	a rapist	a convict	49	injection	1	114	1	injection	impersonal	d	No	7.37400185935016	N/A	-1	0.683222222222222	0.0405122797598559	0.633555555555556	-1	1	FALSE	-0.366444444444444	1	-0.376162043897054	7.75016390324721	0.65
0.65	a pedophile	a rapist	49	injection	1	125	1	injection	personal	d	No	9.11767668711276	N/A	-1	0.323461538461538	0.0419052023836566	0.646923076923077	-1	1	FALSE	-0.353076923076923	1	1.42095905120378	7.69671763590898	0.65
0.65	an addict	a nun	49	injection	1	107	1	injection	personal	d	No	7.87739718635329	N/A	-1	0.66615	0.0448090617920678	0.6677	-1	1	FALSE	-0.3323	1	0.0896700163006088	7.78772717005268	0.65
0.75	a celebrity	an addict	49	injection	1	94	1	injection	impersonal	d	No	9.13529349765327	N/A	-1	0.617743119266055	0.0462241766613936	0.76451376146789	1	0	TRUE	0.23548623853211	0	1.26958569477846	7.86570780287481	0.75
0.75	an elderly person	an olympian	49	injection	1	50	1	unidentified	impersonal	d	No	8.60940767540405	N/A	-1	0.616603603603604	0.0450610501014404	0.766792792792793	1	0	TRUE	0.233207207207207	0	0.378500526519543	8.2309071488845	0.75
0.75	a celebrity	an astronaut	49	injection	1	102	1	injection	impersonal	d	No	7.96554557312999	N/A	-1	0.393646551724138	0.0469024400715304	0.787293103448276	-1	1	FALSE	-0.212706896551724	1	0.149146995325132	7.81639857780486	0.75
0.75	an orphan	an adult	49	injection	1	29	1	unidentified	impersonal	k	Yes	8.51699317141357	N/A	-1	0.395822033898305	0.0466636599620169	0.79164406779661	1	1	TRUE	0.20835593220339	1	0.0381455284848844	8.47884764292869	0.75
0.75	an adult	a celebrity	49	injection	1	53	1	unidentified	impersonal	d	No	8.57206009285708	N/A	-1	0.361099099099099	0.0450633262870011	0.722198198198198	1	0	TRUE	0.277801801801802	0	0.372095522565152	8.19996457029193	0.75
0.75	an adult	a celebrity	49	injection	1	34	1	injection	personal	d	No	8.83287946027762	N/A	-1	0.361099099099099	0.0450633262870011	0.722198198198198	1	0	TRUE	0.277801801801802	0	0.418398939396942	8.41448052088067	0.75
0.75	a gang member	a terrorist	49	injection	1	74	1	unidentified	impersonal	k	Yes	7.98344006300654	N/A	-1	0.621059322033898	0.0439655672850916	0.757881355932203	1	1	TRUE	0.242118644067797	1	-0.0264694228403481	8.00990948584689	0.75
0.75	an orphan	an adult	49	injection	1	38	1	unidentified	impersonal	k	Yes	8.7804801070333	N/A	-1	0.395822033898305	0.0466636599620169	0.79164406779661	1	1	TRUE	0.20835593220339	1	0.414986925035342	8.36549318199796	0.75
0.75	an addict	a convict	49	injection	1	54	1	unidentified	impersonal	d	No	8.02256894698825	N/A	-1	0.369587301587302	0.0420510983908702	0.739174603174603	1	0	TRUE	0.260825396825397	0	-0.167307853783957	8.18987680077221	0.75
0.75	an adult	an orphan	49	injection	1	10	1	unidentified	personal	d	No	9.28219580907661	N/A	-1	0.395822033898305	0.0466636599620169	0.79164406779661	-1	1	FALSE	-0.20835593220339	1	0.523496717160707	8.7586990919159	0.75
0.75	a police officer	a nun	49	injection	1	17	1	injection	impersonal	d	No	9.01663425631559	N/A	-1	0.379908396946565	0.0422025858989117	0.75981679389313	1	0	TRUE	0.24018320610687	0	0.367948770159199	8.64868548615639	0.75
0.75	a police officer	a nun	49	injection	1	126	1	unidentified	impersonal	d	No	7.82644313545601	N/A	-1	0.379908396946565	0.0422025858989117	0.75981679389313	1	0	TRUE	0.24018320610687	0	0.134269006971501	7.69217412848451	0.75
0.75	a judge	an adult	49	injection	1	81	1	injection	personal	d	No	7.13169851046691	N/A	-1	0.391525423728814	0.0422309766491521	0.783050847457627	-1	1	FALSE	-0.216949152542373	1	-0.824069284702076	7.95576779516899	0.75
0.75	an elderly person	an adult	49	injection	1	95	1	injection	impersonal	d	No	7.38709023565676	N/A	-1	0.3986	0.0445207984719687	0.7972	1	0	TRUE	0.2028	0	-0.472212298274212	7.85930253393097	0.75
0.75	a terrorist	a gang member	49	injection	1	133	1	injection	impersonal	d	No	7.93451346388226	N/A	-1	0.621059322033898	0.0439655672850916	0.757881355932203	-1	1	FALSE	-0.242118644067797	1	0.272772787124299	7.66174067675796	0.75
0.75	a congressman	an olympian	49	injection	1	21	1	unidentified	impersonal	d	No	8.34164861890131	N/A	-1	0.3744	0.0479777291815489	0.7488	-1	1	FALSE	-0.2512	1	-0.247897910374494	8.5895465292758	0.75
0.85	a judge	a college student	49	injection	1	44	1	unidentified	personal	d	No	7.84541603659248	N/A	-1	0.559423728813559	0.0461732538643046	0.881152542372881	-1	1	FALSE	-0.118847457627119	1	-0.450548512003084	8.29596454859557	0.85
0.85	a judge	a college student	49	injection	1	92	1	injection	personal	d	No	7.3304052118444	N/A	-1	0.559423728813559	0.0461732538643046	0.881152542372881	-1	1	FALSE	-0.118847457627119	1	-0.548327982231416	7.87873319407582	0.85
0.85	a nun	a celebrity	49	injection	1	116	1	unidentified	personal	d	No	7.01750614294126	N/A	-1	0.440539130434783	0.0454318102235983	0.881078260869565	1	0	TRUE	0.118921739130435	0	-0.722449655112385	7.73995579805364	0.85
0.85	a mentor	a nun	49	injection	1	61	1	unidentified	personal	d	No	8.02780284837031	N/A	-1	0.570336	0.0440152751717906	0.859328	1	0	TRUE	0.140672	0	-0.0945037653139575	8.12230661368427	0.85
0.85	a soldier	an adult	49	injection	1	4	1	unidentified	personal	d	No	8.75951172211649	N/A	-1	0.59055462184874	0.044721474934607	0.818890756302521	1	0	TRUE	0.181109243697479	0	-0.100518600437809	8.8600303225543	0.85
0.85	an elderly person	a police officer	49	injection	1	124	1	unidentified	impersonal	d	No	7.82484569102686	N/A	-1	0.41612	0.0442128077865721	0.83224	1	0	TRUE	0.16776	0	0.123533934350552	7.7013117566763	0.85
0.85	an olympian	a mentor	49	injection	1	39	1	unidentified	impersonal	d	No	8.68287710705717	N/A	-1	0.558853448275862	0.0462987337766902	0.882293103448276	-1	1	FALSE	-0.117706896551724	1	0.329295320208532	8.35358178684864	0.85
0.85	an astronaut	a judge	49	injection	1	100	1	injection	personal	d	No	8.38640090116621	N/A	-1	0.43033064516129	0.0447092980584951	0.860661290322581	1	0	TRUE	0.139338709677419	0	0.558081631763543	7.82831926940267	0.85
0.85	an assassin	a convict	49	injection	1	119	1	unidentified	personal	d	No	8.31287139434261	N/A	-1	0.578556390977444	0.0423683036665345	0.842887218045113	-1	1	FALSE	-0.157112781954887	1	0.58780987876142	7.72506151558119	0.85
0.85	an olympian	a college student	49	injection	1	72	1	injection	impersonal	d	No	7.61381868480863	N/A	-1	0.559589285714286	0.048694260608621	0.880821428571429	-1	1	FALSE	-0.119178571428571	1	-0.412346815753089	8.02616550056172	0.85
0.85	an orphan	a college student	49	injection	1	90	1	injection	impersonal	d	No	8.93813787037279	N/A	-1	0.411478632478632	0.0456614219383988	0.822957264957265	1	0	TRUE	0.177042735042735	0	1.04608747064399	7.8920503997288	0.85
0.85	a convict	an assassin	49	injection	1	130	1	injection	impersonal	d	No	8.68507770041242	N/A	-1	0.578556390977444	0.0423683036665345	0.842887218045113	1	0	TRUE	0.157112781954887	0	1.01058252858058	7.67449517183185	0.85
0.85	a college student	a nun	49	injection	1	37	1	unidentified	personal	d	No	8.96686655418872	N/A	-1	0.579628099173554	0.0438818601118943	0.840743801652893	1	0	TRUE	0.159256198347107	0	0.589329287585867	8.37753726660286	0.85
0.85	a congressman	a billionaire	49	injection	1	127	1	injection	impersonal	d	No	7.06390396147207	N/A	-1	0.576893203883495	0.0489141042250305	0.84621359223301	-1	1	FALSE	-0.15378640776699	1	-0.623776715324578	7.68768067679665	0.85
0.85	a mentor	a nun	49	injection	1	86	1	unidentified	personal	d	No	8.6769282495374	N/A	-1	0.570336	0.0440152751717906	0.859328	1	0	TRUE	0.140672	0	0.757341698010743	7.91958655152665	0.85
0.95	a billionaire	a celebrity	49	injection	1	78	1	injection	impersonal	d	No	7.19218205871325	N/A	-1	0.536	0.0494399918438418	0.928	1	0	TRUE	0.072	0	-0.786276226290666	7.97845828500391	0.95
0.95	a billionaire	a homeless adult	49	injection	1	66	1	injection	personal	d	No	7.42714413340862	N/A	-1	0.494091666666667	0.045396398378765	0.988183333333333	-1	1	FALSE	-0.011816666666667	1	-0.650007381286757	8.07715151469537	0.95
0.95	a homeless adult	a billionaire	49	injection	1	16	1	unidentified	personal	d	No	9.15852062324639	N/A	-1	0.494091666666667	0.045396398378765	0.988183333333333	1	0	TRUE	0.011816666666667	0	0.494636373105145	8.66388425014124	0.95
0.95	a homeless adult	a nun	49	injection	1	42	1	injection	impersonal	d	No	9.09829086816756	N/A	-1	0.472969230769231	0.0429675844550938	0.945938461538462	-1	1	FALSE	-0.0540615384615381	1	0.77966166805823	8.31862920010933	0.95
0.95	a homeless adult	a nun	49	injection	1	103	1	unidentified	impersonal	d	No	9.01115745810682	N/A	-1	0.472969230769231	0.0429675844550938	0.945938461538462	-1	1	FALSE	-0.0540615384615381	1	1.20062091043236	7.81053654767446	0.95
0.95	a convict	a gang member	49	injection	1	33	1	injection	personal	k	Yes	9.38907215991958	N/A	-1	0.5054140625	0.042996468360859	0.989171875	1	1	TRUE	0.010828125	1	0.962001849817099	8.42707031010248	0.95
0.95	an assassin	a gang member	49	injection	1	22	1	injection	personal	d	No	8.85309383613849	N/A	-1	0.52550406504065	0.0447239404295278	0.948991869918699	-1	1	FALSE	-0.051008130081301	1	0.27792709356247	8.57516674257602	0.95
0.95	a homeless adult	an olympian	49	injection	1	113	1	unidentified	personal	d	No	7.42714413340862	N/A	-1	0.455826446280992	0.0446986183182352	0.911652892561983	-1	1	FALSE	-0.088347107438017	1	-0.328209266380727	7.75535339978934	0.95
0.95	a judge	a nun	49	injection	1	8	1	injection	impersonal	d	No	8.80672355472564	N/A	-1	0.481723577235772	0.045062377150327	0.963447154471545	-1	1	FALSE	-0.0365528455284549	1	0.0149929343948365	8.7917306203308	0.95
0.95	an olympian	an astronaut	49	injection	1	131	1	unidentified	personal	d	No	8.01697774676226	N/A	-1	0.507847457627119	0.0468185212617855	0.984305084745763	-1	1	FALSE	-0.0156949152542371	1	0.346781257882388	7.67019648887987	0.95
0.95	a judge	a billionaire	49	injection	1	128	1	injection	personal	d	No	7.10085190894405	N/A	-1	0.486803571428571	0.0465131909630614	0.973607142857143	1	0	TRUE	0.026392857142857	0	-0.582384820438214	7.68323672938226	0.95
0.95	an astronaut	a billionaire	49	injection	1	98	1	unidentified	impersonal	d	No	8.1318247850072	N/A	-1	0.456103448275862	0.0459782540993934	0.912206896551724	1	0	TRUE	0.087793103448276	0	0.291317758700797	7.8405070263064	0.95
0.95	an adult	an astronaut	49	injection	1	48	1	unidentified	personal	d	No	8.82232217747174	N/A	-1	0.511754098360656	0.0443433614881619	0.976491803278688	1	0	TRUE	0.023508196721312	0	0.570207891028391	8.25211428644335	0.95
0.95	an astronaut	a billionaire	49	injection	1	84	1	unidentified	personal	d	No	9.28005298438748	N/A	-1	0.456103448275862	0.0459782540993934	0.912206896551724	1	0	TRUE	0.087793103448276	0	1.34623396869991	7.93381901568757	0.95
0.95	an astronaut	a mentor	49	injection	1	1	1	injection	personal	d	No	9.77109836449038	N/A	-1	0.527666666666667	0.0465503126503863	0.944666666666667	-1	1	FALSE	-0.055333333333333	1	0.857820004269305	8.91327836022108	0.95
0.95	an olympian	a billionaire	49	injection	1	6	1	injection	impersonal	d	No	8.97347814852104	N/A	-1	0.48188679245283	0.0486981152601432	0.96377358490566	1	0	TRUE	0.03622641509434	0	0.147975977674381	8.82550217084665	0.95
0.95	an olympian	a homeless adult	49	injection	1	112	1	unidentified	impersonal	d	No	7.70210434005105	N/A	-1	0.455826446280992	0.0446986183182352	0.911652892561983	1	0	TRUE	0.088347107438017	0	-0.0584963657529727	7.76060070580402	0.95
0.95	an astronaut	an olympian	49	injection	1	109	1	injection	personal	d	No	7.01301578963963	N/A	-1	0.507847457627119	0.0468185212617855	0.984305084745763	1	0	TRUE	0.0156949152542371	0	-0.763680166798463	7.77669595643809	0.95
0.05	a terrorist	a mentor	73	injection	1	61	1	injection	personal	d	No	7.54697411751653	N/A	-1	0.95297520661157	0.0189202799156536	0.0940495867768594	-1	1	FALSE	-0.905950413223141	1	-0.149860241635235	7.69683435915176	0.05
0.05	a mentor	a rapist	73	injection	1	3	1	injection	impersonal	k	Yes	8.99838401005254	N/A	-1	0.950279069767442	0.0195449724178816	0.0994418604651164	1	1	TRUE	0.900558139534884	1	0.08952134635771	8.90886266369483	0.05
0.05	a mentor	a pedophile	73	injection	1	58	1	injection	personal	k	Yes	7.90691548867859	N/A	-1	0.961666666666667	0.0173950872145792	0.0766666666666667	1	1	TRUE	0.923333333333333	1	0.196188489676785	7.7107269990018	0.05
0.05	a pedophile	an orphan	73	injection	1	50	1	injection	personal	d	No	7.83913164827433	N/A	-1	0.0286747967479675	0.0146488578211018	0.0573495934959349	-1	1	FALSE	-0.942650406504065	1	0.080727701834526	7.75840394643981	0.05
0.05	a rapist	an adult	73	injection	1	100	1	injection	impersonal	d	No	7.98548435673382	N/A	-1	0.04288	0.0186793607631128	0.0857600000000001	-1	1	FALSE	-0.91424	1	0.368121715947911	7.61736264078591	0.05
0.05	a rapist	an elderly person	73	injection	1	118	1	injection	impersonal	d	No	7.93415523353632	N/A	-1	0.0392926829268293	0.0180077483800635	0.0785853658536585	-1	1	FALSE	-0.921414634146342	1	0.326009073394399	7.60814616014192	0.05
0.05	a pedophile	a college student	73	injection	1	33	1	injection	personal	d	No	7.80751004221619	N/A	-1	0.961213114754098	0.0176425906742174	0.0775737704918034	-1	1	FALSE	-0.922426229508197	1	-0.132145016008271	7.93965505822446	0.05
0.05	a mentor	a terrorist	73	injection	1	38	1	unidentified	impersonal	k	Yes	8.08948247436075	N/A	-1	0.95297520661157	0.0189202799156536	0.0940495867768594	1	1	TRUE	0.905950413223141	1	0.218137649786443	7.87134482457431	0.05
0.05	a rapist	an adult	73	injection	1	112	1	unidentified	impersonal	k	Yes	8.3086919168389	N/A	-1	0.04288	0.0186793607631128	0.0857600000000001	-1	0	FALSE	-0.91424	0	0.698256853657465	7.61043506318143	0.05
0.05	a terrorist	an elderly person	73	injection	1	7	1	injection	personal	d	No	8.94246092682058	N/A	-1	0.0362586206896552	0.0177171171099633	0.0725172413793104	-1	1	FALSE	-0.92748275862069	1	0.249176236486035	8.69328469033455	0.05
0.05	a pedophile	an adult	73	injection	1	69	1	injection	personal	d	No	7.9359451033537	N/A	-1	0.034344262295082	0.015825463196448	0.0686885245901639	-1	1	FALSE	-0.931311475409836	1	0.268166242149456	7.66777886120425	0.05
0.05	an adult	a rapist	73	injection	1	29	1	unidentified	impersonal	k	Yes	8.08856180527623	N/A	-1	0.04288	0.0186793607631128	0.0857600000000001	1	1	TRUE	0.91424	1	0.0820364588572087	8.00652534641902	0.05
0.05	an astronaut	a terrorist	73	injection	1	56	1	injection	personal	k	Yes	7.87625888230323	N/A	-1	0.0457317073170732	0.0179179913546918	0.0914634146341463	1	1	TRUE	0.908536585365854	1	0.155171113899419	7.72108776840381	0.05
0.15	a nun	a pedophile	73	injection	1	32	1	injection	personal	k	Yes	8.09468364869882	N/A	-1	0.944614173228346	0.0199964242778091	0.110771653543307	1	1	TRUE	0.889228346456693	1	0.13942250192867	7.95526114677015	0.15
0.15	an assassin	an orphan	73	injection	1	9	1	unidentified	personal	d	No	8.4368504387337	N/A	-1	0.0619596774193548	0.0219733054731573	0.12391935483871	-1	1	FALSE	-0.87608064516129	1	-0.162358829977723	8.59920926871142	0.15
0.15	a college student	an assassin	73	injection	1	113	1	unidentified	impersonal	k	Yes	7.71333788887187	N/A	-1	0.902647540983607	0.0261808886903617	0.194704918032787	1	1	TRUE	0.805295081967213	1	0.103328497628535	7.61000939124334	0.15
0.15	an assassin	an elderly person	73	injection	1	104	1	unidentified	impersonal	d	No	7.60936653795421	N/A	-1	0.0712727272727273	0.0231500429987852	0.142545454545455	-1	1	FALSE	-0.857454545454545	1	-0.00526090469663476	7.61462744265085	0.15
0.15	a police officer	a rapist	73	injection	1	65	1	unidentified	personal	k	Yes	7.70165236264223	N/A	-1	0.93637037037037	0.0210349033398431	0.127259259259259	1	1	TRUE	0.872740740740741	1	0.0206503605793529	7.68100200206287	0.15
0.15	an astronaut	an assassin	73	injection	1	72	1	unidentified	personal	d	No	7.32514895795557	N/A	-1	0.0898828125	0.0251099939948124	0.179765625	1	0	TRUE	0.820234375	0	-0.334163388709891	7.65931234666547	0.15
0.15	a thief	an orphan	73	injection	1	90	1	injection	impersonal	d	No	7.73630709654828	N/A	-1	0.0788474576271186	0.0245323452626974	0.157694915254237	-1	1	FALSE	-0.842305084745763	1	0.109506607281855	7.62680048926643	0.15
0.15	an olympian	an assassin	73	injection	1	81	1	unidentified	impersonal	k	Yes	7.62168499872461	N/A	-1	0.0995338983050847	0.0275945757922735	0.199067796610169	1	1	TRUE	0.800932203389831	1	-0.0181223287713301	7.63980732749594	0.15
0.15	a judge	a pedophile	73	injection	1	24	1	injection	impersonal	k	Yes	8.56350409427949	N/A	-1	0.948895161290323	0.0200896090833428	0.102209677419355	1	1	TRUE	0.897790322580645	1	0.454540907602096	8.10896318667739	0.15
0.15	a pedophile	a billionaire	73	injection	1	119	1	unidentified	impersonal	d	No	7.952615111651	N/A	-1	0.911060344827586	0.0267549087908591	0.177879310344828	-1	1	FALSE	-0.822120689655172	1	0.344793858153109	7.60782125349789	0.15
0.15	an elderly person	an assassin	73	injection	1	79	1	injection	personal	k	Yes	8.38845031552351	N/A	-1	0.0712727272727273	0.0231500429987852	0.142545454545455	1	1	TRUE	0.857454545454545	1	0.744964417964997	7.64348589755851	0.15
0.15	a homeless adult	a terrorist	73	injection	1	35	1	unidentified	impersonal	k	Yes	8.36892517474713	N/A	-1	0.910452380952381	0.0250985860540854	0.179095238095238	1	1	TRUE	0.820904761904762	1	0.458451439910705	7.91047373483643	0.15
0.25	a gang member	an adult	73	injection	1	42	1	injection	personal	d	No	7.58882987830781	N/A	-1	0.127264957264957	0.0301072040623707	0.254529914529914	-1	1	FALSE	-0.745470085470086	1	-0.237922781893426	7.82675266020124	0.25
0.25	a congressman	a pedophile	73	injection	1	76	1	unidentified	impersonal	k	Yes	8.05990833457828	N/A	-1	0.873739130434783	0.0300818889519302	0.252521739130435	1	1	TRUE	0.747478260869565	1	0.410244613582453	7.64966372099582	0.25
0.25	a congressman	a pedophile	73	injection	1	39	1	unidentified	impersonal	k	Yes	7.89431806384162	N/A	-1	0.873739130434783	0.0300818889519302	0.252521739130435	1	1	TRUE	0.747478260869565	1	0.0348850459946028	7.85943301784702	0.25
0.25	a thief	an astronaut	73	injection	1	23	1	unidentified	personal	d	No	7.74802852443238	N/A	-1	0.117528455284553	0.028543869533805	0.235056910569106	-1	1	FALSE	-0.764943089430894	1	-0.384337510106551	8.13236603453893	0.25
0.25	a judge	an assassin	73	injection	1	26	1	injection	impersonal	k	Yes	8.14960173573616	N/A	-1	0.861274193548387	0.0316994440123548	0.277451612903226	1	1	TRUE	0.722548387096774	1	0.0843987821017436	8.06520295363441	0.25
0.25	a nun	an assassin	73	injection	1	55	1	injection	impersonal	k	Yes	7.99260665240021	N/A	-1	0.856574803149606	0.0288044337409113	0.286850393700787	1	1	TRUE	0.713149606299213	1	0.265977974060996	7.72662867833921	0.25
0.25	an assassin	a judge	73	injection	1	82	1	injection	impersonal	d	No	8.02551638648901	N/A	-1	0.861274193548387	0.0316994440123548	0.277451612903226	-1	1	FALSE	-0.722548387096774	1	0.38742779787193	7.63808858861708	0.25
0.25	an orphan	a convict	73	injection	1	103	1	injection	personal	d	No	7.40367029001237	N/A	-1	0.131296875	0.028813158765396	0.26259375	1	0	TRUE	0.73740625	0	-0.211595489117024	7.6152657791294	0.25
0.25	a convict	an elderly person	73	injection	1	63	1	unidentified	personal	d	No	7.97418866928601	N/A	-1	0.139190476190476	0.0310396123791805	0.278380952380952	-1	1	FALSE	-0.721619047619048	1	0.285626649018825	7.68856202026719	0.25
0.25	an orphan	a gang member	73	injection	1	84	1	unidentified	personal	d	No	7.74022952476318	N/A	-1	0.101254237288136	0.0277651098253917	0.202508474576271	1	0	TRUE	0.797491525423729	0	0.105354750734998	7.63487477402818	0.25
0.25	a college student	a thief	73	injection	1	106	1	unidentified	personal	d	No	8.23959345430597	N/A	-1	0.87442735042735	0.0311801202848037	0.251145299145299	1	0	TRUE	0.748854700854701	0	0.626159616520073	7.6134338377859	0.25
0.25	a thief	an astronaut	73	injection	1	10	1	unidentified	impersonal	d	No	7.80913539812054	N/A	-1	0.117528455284553	0.028543869533805	0.235056910569106	-1	1	FALSE	-0.764943089430894	1	-0.746118996294993	8.55525439441553	0.25
0.25	a gang member	an astronaut	73	injection	1	96	1	unidentified	impersonal	d	No	7.81681996576455	N/A	-1	0.132577235772358	0.030749614149	0.265154471544715	-1	1	FALSE	-0.734845528455285	1	0.196182412153753	7.6206375536108	0.25
0.25	a celebrity	a terrorist	73	injection	1	21	1	injection	personal	k	Yes	9.38042064234778	N/A	-1	0.869756756756757	0.0320026196194734	0.260486486486486	1	1	TRUE	0.739513513513514	1	1.19796612922659	8.18245451312119	0.25
0.25	a rapist	a celebrity	73	injection	1	8	1	injection	impersonal	d	No	8.49187538343195	N/A	-1	0.874705882352941	0.0295773111610786	0.250588235294118	-1	1	FALSE	-0.749411764705882	1	-0.153312912690609	8.64518829612256	0.25
0.25	an addict	a rapist	73	injection	1	83	1	injection	personal	k	Yes	7.91826468609527	N/A	-1	0.141479674796748	0.0313353744902551	0.282959349593496	1	1	TRUE	0.717040650406504	1	0.281819171627903	7.63644551446737	0.25
0.25	a thief	a college student	73	injection	1	66	1	unidentified	personal	d	No	7.72400465667607	N/A	-1	0.87442735042735	0.0311801202848037	0.251145299145299	-1	1	FALSE	-0.748854700854701	1	0.0465349231283048	7.67746973354776	0.25
0.35	a nun	a gang member	73	injection	1	51	1	injection	impersonal	d	No	7.83161727635261	N/A	-1	0.159852459016393	0.032052520985684	0.319704918032787	1	0	TRUE	0.680295081967213	0	0.0801530951858478	7.75146418116676	0.35
0.35	a terrorist	an addict	73	injection	1	6	1	injection	personal	d	No	8.9557061535706	N/A	-1	0.153724137931034	0.0335020884210678	0.307448275862069	-1	1	FALSE	-0.692551724137931	1	0.212110195981298	8.7435959575893	0.35
0.35	a convict	a mentor	73	injection	1	43	1	injection	impersonal	d	No	7.53315880745556	N/A	-1	0.158511450381679	0.0320277711300361	0.317022900763359	-1	1	FALSE	-0.682977099236641	1	-0.28364514470736	7.81680395216292	0.35
0.35	a gang member	a judge	73	injection	1	73	1	unidentified	impersonal	d	No	7.42773884053289	N/A	-1	0.156151260504202	0.0322912672467752	0.312302521008403	-1	1	FALSE	-0.687697478991597	1	-0.22899608999284	7.65673493052573	0.35
0.35	an addict	an elderly person	73	injection	1	64	1	unidentified	personal	d	No	7.8770178956224	N/A	-1	0.179964912280702	0.0371848237841866	0.359929824561404	-1	1	FALSE	-0.640070175438596	1	0.192320961575724	7.68469693404667	0.35
0.35	a convict	an olympian	73	injection	1	36	1	unidentified	impersonal	d	No	7.81278281857758	N/A	-1	0.189569105691057	0.0360981333958361	0.379138211382114	-1	1	FALSE	-0.620861788617886	1	-0.0840565218636016	7.89683934044118	0.35
0.35	a homeless adult	a thief	73	injection	1	125	1	injection	impersonal	d	No	8.29204763743135	N/A	-1	0.812293650793651	0.0340138088006348	0.375412698412698	1	0	TRUE	0.624587301587302	0	0.685896544514708	7.60615109291665	0.35
0.35	an assassin	a billionaire	73	injection	1	48	1	unidentified	impersonal	d	No	8.3742461820963	N/A	-1	0.829521367521368	0.0366999445759961	0.340957264957265	-1	1	FALSE	-0.659042735042735	1	0.600989244845232	7.77325693725107	0.35
0.35	a thief	a judge	73	injection	1	5	1	unidentified	personal	d	No	9.29880901996379	N/A	-1	0.827621848739496	0.0340561759999284	0.344756302521008	-1	1	FALSE	-0.655243697478992	1	0.502584925603509	8.79622409436028	0.35
0.35	a thief	a judge	73	injection	1	86	1	injection	personal	d	No	7.74413662762799	N/A	-1	0.827621848739496	0.0340561759999284	0.344756302521008	-1	1	FALSE	-0.655243697478992	1	0.112198930663058	7.63193769696493	0.35
0.35	a gang member	a nun	73	injection	1	13	1	injection	impersonal	d	No	8.73456008995299	N/A	-1	0.159852459016393	0.032052520985684	0.319704918032787	-1	1	FALSE	-0.680295081967213	1	0.299897058808513	8.43466303114448	0.35
0.45	an assassin	a congressman	73	injection	1	2	1	injection	impersonal	d	No	8.8206993992149	N/A	-1	0.767817391304348	0.0394308863049614	0.464365217391304	-1	1	FALSE	-0.535634782608696	1	-0.148402050203217	8.96910144941812	0.45
0.45	an assassin	a celebrity	73	injection	1	75	1	unidentified	impersonal	d	No	7.40974195408092	N/A	-1	0.797811965811966	0.0356821925988365	0.404376068376068	-1	1	FALSE	-0.595623931623932	1	-0.242173548843915	7.65191550292484	0.45
0.45	a pedophile	an assassin	73	injection	1	44	1	injection	impersonal	d	No	7.51697722460432	N/A	-1	0.2419140625	0.0371898268010869	0.483828125	-1	1	FALSE	-0.516171875	1	-0.290315995473722	7.80729322007804	0.45
0.55	a convict	a pedophile	73	injection	1	117	1	unidentified	impersonal	k	Yes	7.94767857130157	N/A	-1	0.702255639097744	0.0415051708328112	0.595488721804511	1	1	TRUE	0.404511278195489	1	0.339192542334371	7.6084860289672	0.55
0.55	a billionaire	a convict	73	injection	1	94	1	unidentified	impersonal	d	No	7.91059061225648	N/A	-1	0.735190082644628	0.0412156533418797	0.529619834710744	1	0	TRUE	0.470380165289256	0	0.288080704653658	7.62250990760282	0.55
0.55	a celebrity	a gang member	73	injection	1	41	1	injection	impersonal	d	No	7.47986413116503	N/A	-1	0.744261261261261	0.0398569023490935	0.511477477477478	1	0	TRUE	0.488522522522522	0	-0.357295382131043	7.83715951329607	0.55
0.55	an olympian	an addict	73	injection	1	74	1	unidentified	personal	d	No	7.37838371299671	N/A	-1	0.263972972972973	0.040312090485972	0.527945945945946	1	0	TRUE	0.472054054054054	0	-0.275887268010968	7.65427098100768	0.55
0.55	an addict	a thief	73	injection	1	46	1	injection	personal	d	No	8.45871626165726	N/A	-1	0.289793103448276	0.0421554866151259	0.579586206896552	1	0	TRUE	0.420413793103448	0	0.669206853827463	7.7895094078298	0.55
0.55	a billionaire	a convict	73	injection	1	71	1	unidentified	impersonal	d	No	7.85554467791566	N/A	-1	0.735190082644628	0.0412156533418797	0.529619834710744	1	0	TRUE	0.470380165289256	0	0.193536223270434	7.66200845464523	0.55
0.55	a homeless adult	a soldier	73	injection	1	97	1	unidentified	impersonal	d	No	7.67925142595306	N/A	-1	0.2772578125	0.0409014693302939	0.554515625	-1	1	FALSE	-0.445484375	1	0.0594886925975038	7.61976273335555	0.55
0.55	an addict	a police officer	73	injection	1	91	1	unidentified	personal	d	No	7.28961052145117	N/A	-1	0.734712	0.0395668876030778	0.530576	-1	1	FALSE	-0.469424	1	-0.336043834178487	7.62565435562965	0.55
0.55	a thief	a congressman	73	injection	1	87	1	unidentified	personal	d	No	7.61874237767041	N/A	-1	0.730127272727273	0.0437295808713659	0.539745454545455	-1	1	FALSE	-0.460254545454545	1	-0.0118230283083598	7.63056540597877	0.55
0.55	an orphan	a celebrity	73	injection	1	116	1	injection	personal	d	No	7.49164547360513	N/A	-1	0.296142857142857	0.0426057980742028	0.592285714285714	1	0	TRUE	0.407714285714286	0	-0.11719607538763	7.60884154899276	0.55
0.55	a soldier	a judge	73	injection	1	92	1	injection	personal	d	No	6.78105762593618	N/A	-1	0.293983333333333	0.0429658288799393	0.587966666666667	1	0	TRUE	0.412033333333333	0	-0.843501052756243	7.62455867869242	0.55
0.55	a billionaire	a convict	73	injection	1	37	1	injection	personal	d	No	7.79523492900217	N/A	-1	0.735190082644628	0.0412156533418797	0.529619834710744	1	0	TRUE	0.470380165289256	0	-0.0885702494419567	7.88380517844413	0.55
0.55	a congressman	an elderly person	73	injection	1	1	1	unidentified	impersonal	d	No	8.95854011141217	N/A	-1	0.266703703703704	0.0411379243175607	0.533407407407407	-1	1	FALSE	-0.466592592592593	1	-0.0735741625072723	9.03211427391944	0.55
0.55	a nun	a soldier	73	injection	1	15	1	injection	personal	d	No	8.13827263853019	N/A	-1	0.287650406504065	0.0412569309404372	0.57530081300813	-1	1	FALSE	-0.42469918699187	1	-0.224584556265055	8.36285719479524	0.55
0.55	an orphan	a celebrity	73	injection	1	70	1	unidentified	impersonal	d	No	6.88857245956536	N/A	-1	0.296142857142857	0.0426057980742028	0.592285714285714	1	0	TRUE	0.407714285714286	0	-0.776256260743019	7.66482872030838	0.55
0.55	an addict	a mentor	73	injection	1	22	1	unidentified	personal	d	No	7.88457651059632	N/A	-1	0.74653781512605	0.0407361600189282	0.506924369747899	-1	1	FALSE	-0.493075630252101	1	-0.27227008953541	8.15684660013173	0.55
0.55	a celebrity	a gang member	73	injection	1	4	1	unidentified	impersonal	d	No	9.08034557536	N/A	-1	0.744261261261261	0.0398569023490935	0.511477477477478	1	0	TRUE	0.488522522522522	0	0.229069781229166	8.85127579413083	0.55
0.55	a gang member	a celebrity	73	injection	1	47	1	injection	impersonal	d	No	7.74630066223144	N/A	-1	0.744261261261261	0.0398569023490935	0.511477477477478	-1	1	FALSE	-0.488522522522522	1	-0.03489961215642	7.78120027438786	0.55
0.55	a terrorist	a thief	73	injection	1	53	1	unidentified	personal	d	No	7.58018941794454	N/A	-1	0.267127118644068	0.041226199879026	0.534254237288136	-1	1	FALSE	-0.465745762711864	1	-0.158298319183924	7.73848773712847	0.55
0.65	an adult	a congressman	73	injection	1	80	1	injection	personal	d	No	7.57916796739608	N/A	-1	0.314082568807339	0.0456033290583103	0.628165137614679	1	0	TRUE	0.371834862385321	0	-0.0624372481222899	7.64160521551837	0.65
0.65	a celebrity	a convict	73	injection	1	60	1	unidentified	impersonal	d	No	7.35564110297425	N/A	-1	0.697247933884298	0.0413018844426356	0.605504132231405	1	0	TRUE	0.394495867768595	0	-0.345617279426758	7.70125838240101	0.65
0.65	an orphan	a nun	73	injection	1	67	1	injection	personal	d	No	7.4759059693674	N/A	-1	0.31072131147541	0.0423384389985975	0.62144262295082	1	0	TRUE	0.37855737704918	0	-0.198186998134993	7.67409296750239	0.65
0.65	a police officer	a congressman	73	injection	1	20	1	unidentified	impersonal	d	No	8.84188198949711	N/A	-1	0.317361344537815	0.0433028380272686	0.63472268907563	1	0	TRUE	0.36527731092437	0	0.632640300843171	8.20924168865394	0.65
0.65	a homeless adult	an addict	73	injection	1	19	1	unidentified	impersonal	d	No	8.36938899664784	N/A	-1	0.664516129032258	0.041885030889668	0.670967741935484	1	0	TRUE	0.329032258064516	0	0.132126564041906	8.23726243260594	0.65
0.65	an orphan	a nun	73	injection	1	18	1	unidentified	personal	d	No	7.66058546170326	N/A	-1	0.31072131147541	0.0423384389985975	0.62144262295082	1	0	TRUE	0.37855737704918	0	-0.605988089973938	8.26657355167719	0.65
0.65	a mentor	a congressman	73	injection	1	45	1	injection	impersonal	d	No	6.90875477931522	N/A	-1	0.309752212389381	0.0433194273991671	0.619504424778761	1	0	TRUE	0.380495575221239	0	-0.889446403440788	7.79820118275601	0.65
0.65	a convict	a terrorist	73	injection	1	93	1	unidentified	personal	k	Yes	8.03883475778775	N/A	-1	0.6673125	0.0424776671177487	0.665375	1	1	TRUE	0.334625	1	0.415323520608482	7.62351123717927	0.65
0.65	a terrorist	a convict	73	injection	1	28	1	unidentified	personal	d	No	8.97017781549238	N/A	-1	0.6673125	0.0424776671177487	0.665375	-1	1	FALSE	-0.334625	1	0.944966956360629	8.02521085913175	0.65
0.65	a pedophile	a gang member	73	injection	1	16	1	injection	personal	d	No	8.64909826229618	N/A	-1	0.664211382113821	0.0446065924835502	0.671577235772358	-1	1	FALSE	-0.328422764227642	1	0.319790919906449	8.32930734238973	0.65
0.65	a billionaire	an addict	73	injection	1	17	1	unidentified	impersonal	d	No	8.1721644521119	N/A	-1	0.665	0.0451950509514715	0.67	1	0	TRUE	0.33	0	-0.125070016444635	8.29723446855654	0.65
0.65	a soldier	an olympian	73	injection	1	11	1	injection	impersonal	d	No	8.07961802938984	N/A	-1	0.664324561403509	0.0451018367781097	0.671350877192982	1	0	TRUE	0.328649122807018	0	-0.433616533742791	8.51323456313263	0.65
0.75	an astronaut	a soldier	73	injection	1	102	1	injection	personal	d	No	6.95939851213398	N/A	-1	0.641306451612903	0.0437070652184035	0.717387096774194	-1	1	FALSE	-0.282612903225806	1	-0.656534999321244	7.61593351145522	0.75
0.75	a college student	a congressman	73	injection	1	89	1	injection	personal	d	No	7.51860721681525	N/A	-1	0.647366972477064	0.0457105945154951	0.705266055045872	1	0	TRUE	0.294733944954128	0	-0.109392186354272	7.62799940316952	0.75
0.75	a homeless adult	a police officer	73	injection	1	40	1	injection	personal	d	No	7.68202151082687	N/A	-1	0.370433823529412	0.0423215822219775	0.740867647058824	-1	1	FALSE	-0.259132352941176	1	-0.166024098525111	7.84804560935199	0.75
0.75	a judge	a congressman	73	injection	1	68	1	injection	impersonal	d	No	6.95654544315157	N/A	-1	0.374252252252252	0.0462967044455262	0.748504504504505	1	0	TRUE	0.251495495495495	0	-0.714319415027765	7.67086485817933	0.75
0.75	an orphan	a billionaire	73	injection	1	54	1	unidentified	personal	d	No	7.8995244720322	N/A	-1	0.362955357142857	0.045849382347557	0.725910714285714	1	0	TRUE	0.274089285714286	0	0.167099720927819	7.73242475110438	0.75
0.75	a celebrity	an adult	73	injection	1	107	1	injection	impersonal	d	No	7.39694860262101	N/A	-1	0.361099099099099	0.0450633262870011	0.722198198198198	-1	1	FALSE	-0.277801801801802	1	-0.215927546972869	7.61287614959388	0.75
0.75	an adult	an orphan	73	injection	1	30	1	unidentified	personal	d	No	8.31727776622123	N/A	-1	0.395822033898305	0.0466636599620169	0.79164406779661	-1	1	FALSE	-0.20835593220339	1	0.328615332714613	7.98866243350662	0.75
0.75	an adult	a judge	73	injection	1	115	1	injection	personal	d	No	7.82444593087762	N/A	-1	0.391525423728814	0.0422309766491521	0.783050847457627	1	0	TRUE	0.216949152542373	0	0.21523248991013	7.60921344096749	0.75
0.75	an adult	a judge	73	injection	1	120	1	injection	impersonal	d	No	7.69530313496357	N/A	-1	0.391525423728814	0.0422309766491521	0.783050847457627	1	0	TRUE	0.216949152542373	0	0.087792484614555	7.60751065034901	0.75
0.75	a homeless adult	a police officer	73	injection	1	105	1	injection	impersonal	d	No	8.33854487998858	N/A	-1	0.370433823529412	0.0423215822219775	0.740867647058824	-1	1	FALSE	-0.259132352941176	1	0.724527672074155	7.61401720791442	0.75
0.75	a mentor	a judge	73	injection	1	124	1	unidentified	impersonal	d	No	7.36707705988101	N/A	-1	0.384237704918033	0.0437741689615472	0.768475409836066	1	0	TRUE	0.231524590163934	0	-0.239322027601139	7.60639908748215	0.75
0.75	a terrorist	a gang member	73	injection	1	62	1	unidentified	personal	d	No	7.53315880745556	N/A	-1	0.621059322033898	0.0439655672850916	0.757881355932203	-1	1	FALSE	-0.242118644067797	1	-0.15944628899205	7.69260509644761	0.75
0.75	an elderly person	an astronaut	73	injection	1	31	1	injection	impersonal	d	No	8.11552088154677	N/A	-1	0.364818181818182	0.0444359657055397	0.729636363636364	1	0	TRUE	0.270363636363636	0	0.14393497479228	7.97158590675449	0.75
0.75	a celebrity	an astronaut	73	injection	1	114	1	injection	personal	d	No	7.57198844937744	N/A	-1	0.393646551724138	0.0469024400715304	0.787293103448276	-1	1	FALSE	-0.212706896551724	1	-0.0376140094537973	7.60960245883124	0.75
0.75	a soldier	a police officer	73	injection	1	78	1	unidentified	impersonal	d	No	7.28000825288419	N/A	-1	0.376635658914729	0.0411954386978915	0.753271317829457	1	0	TRUE	0.246728682170543	0	-0.365444933455396	7.64545318633958	0.75
0.75	a soldier	an astronaut	73	injection	1	59	1	unidentified	personal	d	No	7.02642680869964	N/A	-1	0.641306451612903	0.0437070652184035	0.717387096774194	1	0	TRUE	0.282612903225806	0	-0.679459326356871	7.70588613505651	0.75
0.85	a police officer	an elderly person	73	injection	1	122	1	unidentified	impersonal	d	No	7.49942329059223	N/A	-1	0.41612	0.0442128077865721	0.83224	-1	1	FALSE	-0.16776	1	-0.107506572911555	7.60692986350378	0.85
0.85	an orphan	a college student	73	injection	1	34	1	unidentified	personal	d	No	7.20266119652324	N/A	-1	0.411478632478632	0.0456614219383988	0.822957264957265	1	0	TRUE	0.177042735042735	0	-0.722074806233995	7.92473600275723	0.85
0.85	a college student	an olympian	73	injection	1	77	1	unidentified	impersonal	d	No	7.71154897962915	N/A	-1	0.559589285714286	0.048694260608621	0.880821428571429	1	0	TRUE	0.119178571428571	0	0.0640379094657693	7.64751107016338	0.85
0.85	a police officer	a billionaire	73	injection	1	85	1	unidentified	impersonal	d	No	7.83873755959928	N/A	-1	0.42004132231405	0.0441765864546982	0.840082644628099	1	0	TRUE	0.159917355371901	0	0.205364376675638	7.63337318292364	0.85
0.85	a nun	an astronaut	73	injection	1	98	1	injection	personal	d	No	6.77078942390898	N/A	-1	0.415456692913386	0.0436746013597216	0.830913385826772	-1	1	FALSE	-0.169086614173228	1	-0.848137001753352	7.61892642566233	0.85
0.85	an olympian	a college student	73	injection	1	109	1	unidentified	impersonal	d	No	7.34536484041687	N/A	-1	0.559589285714286	0.048694260608621	0.880821428571429	-1	1	FALSE	-0.119178571428571	1	-0.266468505951004	7.61183334636787	0.85
0.85	a mentor	a nun	73	injection	1	57	1	unidentified	impersonal	d	No	8.24407127029579	N/A	-1	0.570336	0.0440152751717906	0.859328	1	0	TRUE	0.140672	0	0.528280482132946	7.71579078816284	0.85
0.85	a college student	an orphan	73	injection	1	12	1	unidentified	impersonal	d	No	7.94449216393216	N/A	-1	0.411478632478632	0.0456614219383988	0.822957264957265	-1	1	FALSE	-0.177042735042735	1	-0.528572423757989	8.47306458769015	0.85
0.85	a college student	a homeless adult	73	injection	1	101	1	unidentified	impersonal	d	No	7.42535788702715	N/A	-1	0.578496	0.0448600312795968	0.843008	1	0	TRUE	0.156992	0	-0.191274106300765	7.61663199332792	0.85
0.85	a college student	a homeless adult	73	injection	1	108	1	injection	impersonal	d	No	7.60339933974067	N/A	-1	0.578496	0.0448600312795968	0.843008	1	0	TRUE	0.156992	0	-0.00894367299155086	7.61234301273222	0.85
0.85	a congressman	a billionaire	73	injection	1	95	1	injection	personal	d	No	7.14913159855741	N/A	-1	0.576893203883495	0.0489141042250305	0.84621359223301	-1	1	FALSE	-0.15378640776699	1	-0.472421061401438	7.62155265995885	0.85
0.85	a mentor	an olympian	73	injection	1	25	1	injection	impersonal	d	No	7.51534457118044	N/A	-1	0.558853448275862	0.0462987337766902	0.882293103448276	1	0	TRUE	0.117706896551724	0	-0.571246040567922	8.08659061174836	0.85
0.95	a billionaire	an astronaut	73	injection	1	52	1	unidentified	impersonal	d	No	7.15617663748062	N/A	-1	0.456103448275862	0.0459782540993934	0.912206896551724	-1	1	FALSE	-0.087793103448276	1	-0.588653290475611	7.74482992795623	0.95
0.95	a nun	a homeless adult	73	injection	1	110	1	injection	personal	d	No	7.21817683840341	N/A	-1	0.472969230769231	0.0429675844550938	0.945938461538462	1	0	TRUE	0.0540615384615381	0	-0.393169278846341	7.61134611724975	0.95
0.95	a college student	an adult	73	injection	1	88	1	unidentified	personal	d	No	7.60887062919126	N/A	-1	0.487112068965517	0.0479491034472653	0.974224137931034	-1	1	FALSE	-0.025775862068966	1	-0.0203828987163517	7.62925352790761	0.95
0.95	a police officer	an adult	73	injection	1	123	1	injection	impersonal	d	No	7.34858753092759	N/A	-1	0.484629921259842	0.0448488192419571	0.969259842519685	-1	1	FALSE	-0.030740157480315	1	-0.258070971445576	7.60665850237317	0.95
0.95	a convict	a thief	73	injection	1	14	1	unidentified	impersonal	d	No	7.9755646584952	N/A	-1	0.5328359375	0.0453215538129195	0.934328125	1	0	TRUE	0.065671875	0	-0.422387383187969	8.39795204168317	0.95
0.95	an adult	an astronaut	73	injection	1	27	1	unidentified	impersonal	d	No	8.32675881451173	N/A	-1	0.511754098360656	0.0443433614881619	0.976491803278688	1	0	TRUE	0.023508196721312	0	0.282001961563097	8.04475685294864	0.95
0.95	a nun	an olympian	73	injection	1	49	1	injection	impersonal	d	No	8.29529885950246	N/A	-1	0.451598290598291	0.0471287010162707	0.903196581196581	-1	1	FALSE	-0.096803418803419	1	0.529635566680084	7.76566329282238	0.95
0.95	an adult	an olympian	73	injection	1	99	1	injection	personal	d	No	7.12205988162914	N/A	-1	0.538241071428571	0.0481381500213955	0.923517857142857	1	0	TRUE	0.0764821428571431	0	-0.496067053448068	7.61812693507721	0.95
0.95	a homeless adult	a billionaire	73	injection	1	121	1	unidentified	personal	d	No	7.81480342948936	N/A	-1	0.494091666666667	0.045396398378765	0.988183333333333	1	0	TRUE	0.011816666666667	0	0.207589708482564	7.6072137210068	0.95
0.95	a police officer	a mentor	73	injection	1	111	1	injection	impersonal	d	No	7.46965417293213	N/A	-1	0.471458015267176	0.0433438039397077	0.942916030534351	1	0	TRUE	0.057083969465649	0	-0.141226164681854	7.61088033761398	0.95
0.05	a mentor	a rapist	7	injection	1	77	1	injection	impersonal	k	Yes	7.5999019592085	N/A	-1	0.950279069767442	0.0195449724178816	0.0994418604651164	1	1	TRUE	0.900558139534884	1	-0.478677720452865	8.07857967966136	0.05
0.05	a pedophile	an astronaut	7	injection	1	20	1	unidentified	personal	d	No	7.67971363996637	N/A	-1	0.0383125	0.0167948861566107	0.0766249999999999	-1	1	FALSE	-0.923375	1	-0.401158763734062	8.08087240370043	0.05
0.05	a terrorist	a mentor	7	injection	1	50	1	unidentified	impersonal	d	No	7.82164312623998	N/A	-1	0.95297520661157	0.0189202799156536	0.0940495867768594	-1	1	FALSE	-0.905950413223141	1	-0.256937416283584	8.07858054252357	0.05
0.05	a police officer	a pedophile	7	injection	1	128	1	injection	impersonal	k	Yes	7.87131120332341	N/A	-1	0.0427348484848485	0.01822580995369	0.085469696969697	1	1	TRUE	0.914530303030303	1	-0.207268475622381	8.07857967894579	0.05
0.05	a police officer	a pedophile	7	injection	1	84	1	unidentified	personal	k	Yes	8.56407677731509	N/A	-1	0.0427348484848485	0.01822580995369	0.085469696969697	1	1	TRUE	0.914530303030303	1	0.485497098255614	8.07857967905947	0.05
0.05	a soldier	a rapist	7	injection	1	43	1	injection	personal	k	Yes	7.72400465667607	N/A	-1	0.0338818897637795	0.0157661317244983	0.0677637795275591	1	1	TRUE	0.932236220472441	1	-0.354580457858171	8.07858511453424	0.05
0.05	a terrorist	a mentor	7	injection	1	71	1	injection	personal	d	No	7.54960916515453	N/A	-1	0.95297520661157	0.0189202799156536	0.0940495867768594	-1	1	FALSE	-0.905950413223141	1	-0.528970517254363	8.0785796824089	0.05
0.05	an orphan	a terrorist	7	injection	1	136	1	injection	impersonal	k	Yes	8.12976444579417	N/A	-1	0.029864406779661	0.0160637756380309	0.059728813559322	1	1	TRUE	0.940271186440678	1	0.0511847668483849	8.07857967894579	0.05
0.05	a rapist	an orphan	7	injection	1	132	1	injection	impersonal	d	No	8.78232285939751	N/A	-1	0.0348650793650794	0.0158741101836107	0.0697301587301588	-1	1	FALSE	-0.930269841269841	1	0.70374318045172	8.07857967894579	0.05
0.05	a soldier	a pedophile	7	injection	1	147	1	unidentified	personal	k	Yes	8.46674164792014	N/A	-1	0.0253951612903226	0.0142856636459407	0.0507903225806452	1	1	TRUE	0.949209677419355	1	0.388161968974353	8.07857967894579	0.05
0.05	an astronaut	a pedophile	7	injection	1	49	1	injection	impersonal	k	Yes	7.80261806344267	N/A	-1	0.0383125	0.0167948861566107	0.0766249999999999	1	1	TRUE	0.923375	1	-0.275962738649787	8.07858080209246	0.05
0.05	a mentor	a terrorist	7	injection	1	33	1	injection	personal	k	Yes	7.67229245562876	N/A	-1	0.95297520661157	0.0189202799156536	0.0940495867768594	1	1	TRUE	0.905950413223141	1	-0.406362488950394	8.07865494457915	0.05
0.05	an astronaut	a rapist	7	injection	1	129	1	injection	personal	k	Yes	8.10681603894705	N/A	-1	0.0476384615384615	0.0184543359451891	0.095276923076923	1	1	TRUE	0.904723076923077	1	0.0282363600012658	8.07857967894579	0.05
0.05	an astronaut	a rapist	7	injection	1	37	1	unidentified	impersonal	k	Yes	7.67089483136212	N/A	-1	0.0476384615384615	0.0184543359451891	0.095276923076923	1	1	TRUE	0.904723076923077	1	-0.407711153695329	8.07860598505745	0.05
0.05	an astronaut	a terrorist	7	injection	1	112	1	injection	personal	k	Yes	8.03915739047324	N/A	-1	0.0457317073170732	0.0179179913546918	0.0914634146341463	1	1	TRUE	0.908536585365854	1	-0.0394222884726219	8.07857967894586	0.05
0.05	an orphan	a rapist	7	injection	1	82	1	unidentified	personal	k	Yes	8.20576472523446	N/A	-1	0.0348650793650794	0.0158741101836107	0.0697301587301588	1	1	TRUE	0.930269841269841	1	0.127185046096368	8.07857967913809	0.05
0.15	a gang member	a soldier	7	injection	1	80	1	injection	personal	d	No	7.56734567601324	N/A	-1	0.0983361344537815	0.0267793798426612	0.196672268907563	-1	1	FALSE	-0.803327731092437	1	-0.511234003257822	8.07857967927106	0.15
0.15	a police officer	a terrorist	7	injection	1	116	1	unidentified	personal	k	Yes	7.40610338123702	N/A	-1	0.935637795275591	0.0224759664173576	0.128724409448819	1	1	TRUE	0.871275590551181	1	-0.672476297708796	8.07857967894581	0.15
0.15	a gang member	a soldier	7	injection	1	103	1	injection	impersonal	d	No	8.32748441618826	N/A	-1	0.0983361344537815	0.0267793798426612	0.196672268907563	-1	1	FALSE	-0.803327731092437	1	0.248904737241707	8.07857967894656	0.15
0.15	a homeless adult	a pedophile	7	injection	1	106	1	unidentified	impersonal	k	Yes	7.83280751652486	N/A	-1	0.924580152671756	0.0228070940929906	0.150839694656488	1	1	TRUE	0.849160305343512	1	-0.245772162421272	8.07857967894614	0.15
0.15	an orphan	an assassin	7	injection	1	91	1	unidentified	impersonal	d	No	8.22174772834662	N/A	-1	0.0619596774193548	0.0219733054731573	0.12391935483871	1	0	TRUE	0.87608064516129	0	0.143168049382774	8.07857967896385	0.15
0.15	an orphan	an assassin	7	injection	1	144	1	injection	impersonal	k	Yes	8.54907938027856	N/A	-1	0.0619596774193548	0.0219733054731573	0.12391935483871	1	1	TRUE	0.87608064516129	1	0.470499701332773	8.07857967894579	0.15
0.15	a rapist	a homeless adult	7	injection	1	104	1	unidentified	impersonal	d	No	8.31434234336979	N/A	-1	0.910634328358209	0.024718673677556	0.178731343283582	-1	1	FALSE	-0.821268656716418	1	0.23576266442341	8.07857967894638	0.15
0.15	a terrorist	a judge	7	injection	1	72	1	injection	personal	d	No	7.75061473277041	N/A	-1	0.928949579831933	0.0235531555332125	0.142100840336134	-1	1	FALSE	-0.857899159663866	1	-0.327964948838132	8.07857968160854	0.15
0.15	a nun	a rapist	7	injection	1	17	1	unidentified	impersonal	k	Yes	7.72885582385254	N/A	-1	0.926565891472868	0.0231368782695567	0.146868217054264	1	1	TRUE	0.853131782945736	1	-0.354767644743275	8.08362346859582	0.15
0.15	a gang member	a soldier	7	injection	1	75	1	unidentified	impersonal	d	No	8.09223940672421	N/A	-1	0.0983361344537815	0.0267793798426612	0.196672268907563	-1	1	FALSE	-0.803327731092437	1	0.0136597265680329	8.07857968015618	0.15
0.15	a soldier	a gang member	7	injection	1	19	1	injection	impersonal	k	Yes	7.57763383260273	N/A	-1	0.0983361344537815	0.0267793798426612	0.196672268907563	1	1	TRUE	0.803327731092437	1	-0.503927704188636	8.08156153679136	0.15
0.15	a thief	an orphan	7	injection	1	61	1	unidentified	personal	d	No	7.51534457118044	N/A	-1	0.0788474576271186	0.0245323452626974	0.157694915254237	-1	1	FALSE	-0.842305084745763	1	-0.563235155718407	8.07857972689884	0.15
0.15	a rapist	an olympian	7	injection	1	11	1	injection	personal	d	No	7.73455884435476	N/A	-1	0.0517416666666667	0.0204622761786923	0.103483333333333	-1	1	FALSE	-0.896516666666667	1	-0.368430794055262	8.10298963841002	0.15
0.15	a rapist	a homeless adult	7	injection	1	2	1	injection	impersonal	d	No	7.78696700261487	N/A	-1	0.910634328358209	0.024718673677556	0.178731343283582	-1	1	FALSE	-0.821268656716418	1	-0.551498264357849	8.33846526697272	0.15
0.15	a rapist	a police officer	7	injection	1	24	1	injection	personal	d	No	8.28778002708843	N/A	-1	0.93637037037037	0.0210349033398431	0.127259259259259	-1	1	FALSE	-0.872740740740741	1	0.208399017300064	8.07938100978837	0.15
0.15	a terrorist	a nun	7	injection	1	39	1	unidentified	personal	d	No	8.08825472712243	N/A	-1	0.924688524590164	0.0232050767994503	0.150622950819672	-1	1	FALSE	-0.849377049180328	1	0.00965949616300321	8.07859523095943	0.15
0.25	an assassin	a judge	7	injection	1	119	1	unidentified	impersonal	d	No	8.46358142196759	N/A	-1	0.861274193548387	0.0316994440123548	0.277451612903226	-1	1	FALSE	-0.722548387096774	1	0.385001743021791	8.0785796789458	0.25
0.25	an astronaut	a gang member	7	injection	1	10	1	injection	impersonal	k	Yes	7.95085485771999	N/A	-1	0.132577235772358	0.030749614149	0.265154471544715	1	1	TRUE	0.734845528455285	1	-0.159471776018822	8.11032663373881	0.25
0.25	a mentor	a gang member	7	injection	1	90	1	injection	personal	k	Yes	7.67136092319064	N/A	-1	0.121487603305785	0.0284828903234445	0.24297520661157	1	1	TRUE	0.75702479338843	1	-0.407218755778633	8.07857967896928	0.25
0.25	a mentor	a thief	7	injection	1	65	1	injection	personal	k	Yes	7.9391588179568	N/A	-1	0.874157024793388	0.0289866802663697	0.251685950413223	1	1	TRUE	0.748314049586777	1	-0.139420877749075	8.07857969570587	0.25
0.25	a celebrity	a pedophile	7	injection	1	26	1	injection	personal	k	Yes	7.71957398925958	N/A	-1	0.891396551724138	0.028483929217034	0.217206896551724	1	1	TRUE	0.782793103448276	1	-0.359479431619484	8.07905342087906	0.25
0.25	an assassin	a homeless adult	7	injection	1	16	1	injection	personal	d	No	7.94697135769359	N/A	-1	0.851590909090909	0.0323140421403737	0.296818181818182	-1	1	FALSE	-0.703181818181818	1	-0.138168142141684	8.08513949983528	0.25
0.25	a gang member	an elderly person	7	injection	1	29	1	unidentified	personal	d	No	7.67554600253785	N/A	-1	0.111577586206897	0.0281335799456093	0.223155172413793	-1	1	FALSE	-0.776844827586207	1	-0.403249022394411	8.07879502493226	0.25
0.25	an elderly person	a convict	7	injection	1	134	1	injection	personal	k	Yes	8.18646442942209	N/A	-1	0.139190476190476	0.0310396123791805	0.278380952380952	1	1	TRUE	0.721619047619048	1	0.107884750476304	8.07857967894579	0.25
0.25	a mentor	a gang member	7	injection	1	35	1	injection	impersonal	k	Yes	8.00469951054955	N/A	-1	0.121487603305785	0.0284828903234445	0.24297520661157	1	1	TRUE	0.75702479338843	1	-0.0739246649821208	8.07862417553167	0.25
0.25	a rapist	an addict	7	injection	1	133	1	unidentified	personal	d	No	7.83597458172157	N/A	-1	0.141479674796748	0.0313353744902551	0.282959349593496	-1	1	FALSE	-0.717040650406504	1	-0.24260509722422	8.07857967894579	0.25
0.25	a pedophile	an addict	7	injection	1	92	1	injection	personal	d	No	8.14467918344776	N/A	-1	0.118520661157025	0.0304063224915403	0.23704132231405	-1	1	FALSE	-0.76295867768595	1	0.0660995044880845	8.07857967895967	0.25
0.25	a gang member	an astronaut	7	injection	1	122	1	injection	personal	d	No	8.4707303170059	N/A	-1	0.132577235772358	0.030749614149	0.265154471544715	-1	1	FALSE	-0.734845528455285	1	0.392150638060105	8.07857967894579	0.25
0.25	a gang member	an elderly person	7	injection	1	34	1	injection	personal	d	No	7.87473912517181	N/A	-1	0.111577586206897	0.0281335799456093	0.223155172413793	-1	1	FALSE	-0.776844827586207	1	-0.20389842486969	8.0786375500415	0.25
0.25	an olympian	a thief	7	injection	1	105	1	injection	personal	k	Yes	8.30152165494073	N/A	-1	0.130849557522124	0.0315607070630143	0.261699115044248	1	1	TRUE	0.738300884955752	1	0.222941975994486	8.07857967894624	0.25
0.25	a rapist	a congressman	7	injection	1	141	1	injection	personal	d	No	9.29780164774618	N/A	-1	0.855307692307692	0.0313378168142828	0.289384615384615	-1	1	FALSE	-0.710615384615385	1	1.21922196880039	8.07857967894579	0.25
0.25	a terrorist	a celebrity	7	injection	1	123	1	unidentified	personal	d	No	8.44440742169058	N/A	-1	0.869756756756757	0.0320026196194734	0.260486486486486	-1	1	FALSE	-0.739513513513514	1	0.365827742744795	8.07857967894579	0.25
0.25	an assassin	a police officer	7	injection	1	62	1	injection	impersonal	d	No	7.87853419614036	N/A	-1	0.883398496240602	0.0273431689265252	0.233203007518797	-1	1	FALSE	-0.766796992481203	1	-0.200045519676116	8.07857971581648	0.25
0.25	a pedophile	a congressman	7	injection	1	63	1	injection	impersonal	d	No	7.47816969415979	N/A	-1	0.873739130434783	0.0300818889519302	0.252521739130435	-1	1	FALSE	-0.747478260869565	1	-0.600410013135557	8.07857970729534	0.25
0.25	an assassin	a police officer	7	injection	1	108	1	unidentified	impersonal	d	No	7.51697722460432	N/A	-1	0.883398496240602	0.0273431689265252	0.233203007518797	-1	1	FALSE	-0.766796992481203	1	-0.561602454341673	8.07857967894599	0.25
0.25	an assassin	an adult	7	injection	1	14	1	injection	personal	d	No	7.97968130238774	N/A	-1	0.891219512195122	0.0287833976459904	0.217560975609756	-1	1	FALSE	-0.782439024390244	1	-0.109994263223983	8.08967556561172	0.25
0.25	an orphan	a gang member	7	injection	1	142	1	unidentified	impersonal	k	Yes	7.85593219971861	N/A	-1	0.101254237288136	0.0277651098253917	0.202508474576271	1	1	TRUE	0.797491525423729	1	-0.222647479227172	8.07857967894579	0.25
0.35	an astronaut	a convict	7	injection	1	113	1	injection	personal	k	Yes	7.90174751852014	N/A	-1	0.175218045112782	0.0339296475350126	0.350436090225564	1	1	TRUE	0.649563909774436	1	-0.176832160425697	8.07857967894584	0.35
0.35	an astronaut	a convict	7	injection	1	30	1	injection	impersonal	d	No	7.74240202181578	N/A	-1	0.175218045112782	0.0339296475350126	0.350436090225564	1	0	TRUE	0.649563909774436	0	-0.336343234799888	8.07874525661567	0.35
0.35	a soldier	an addict	7	injection	1	48	1	injection	impersonal	k	Yes	7.55851674304564	N/A	-1	0.81148717948718	0.0363332669184672	0.377025641025641	1	1	TRUE	0.622974358974359	1	-0.520064396635326	8.07858113968097	0.35
0.35	a soldier	an addict	7	injection	1	87	1	unidentified	personal	k	Yes	7.54855597916987	N/A	-1	0.81148717948718	0.0363332669184672	0.377025641025641	1	1	TRUE	0.622974358974359	1	-0.53002369982759	8.07857967899746	0.35
0.35	a billionaire	an assassin	7	injection	1	78	1	injection	impersonal	k	Yes	8.0040315078527	N/A	-1	0.829521367521368	0.0366999445759961	0.340957264957265	1	1	TRUE	0.659042735042735	1	-0.0745481716432863	8.07857967949599	0.35
0.35	a gang member	a judge	7	injection	1	86	1	injection	personal	d	No	8.27026911143662	N/A	-1	0.156151260504202	0.0322912672467752	0.312302521008403	-1	1	FALSE	-0.687697478991597	1	0.191689432423628	8.078579679013	0.35
0.35	a convict	an astronaut	7	injection	1	117	1	unidentified	personal	d	No	7.60439634879634	N/A	-1	0.175218045112782	0.0339296475350126	0.350436090225564	-1	1	FALSE	-0.649563909774436	1	-0.474183330149468	8.07857967894581	0.35
0.35	an olympian	a convict	7	injection	1	38	1	unidentified	personal	k	Yes	7.89506349809157	N/A	-1	0.189569105691057	0.0360981333958361	0.379138211382114	1	1	TRUE	0.620861788617886	1	-0.183536407396365	8.07859990548794	0.35
0.35	an orphan	an addict	7	injection	1	143	1	injection	personal	k	Yes	8.55506684384432	N/A	-1	0.167077586206897	0.0340002823946035	0.334155172413793	1	1	TRUE	0.665844827586207	1	0.476487164898533	8.07857967894579	0.35
0.35	a convict	an astronaut	7	injection	1	99	1	injection	impersonal	d	No	8.66819606495276	N/A	-1	0.175218045112782	0.0339296475350126	0.350436090225564	-1	1	FALSE	-0.649563909774436	1	0.589616386004773	8.07857967894799	0.35
0.35	an addict	a soldier	7	injection	1	27	1	unidentified	personal	d	No	7.64444076155657	N/A	-1	0.81148717948718	0.0363332669184672	0.377025641025641	-1	1	FALSE	-0.622974358974359	1	-0.434503173471835	8.0789439350284	0.35
0.35	a terrorist	a congressman	7	injection	1	70	1	injection	impersonal	d	No	7.80139132029149	N/A	-1	0.844918181818182	0.0347030985482637	0.310163636363636	-1	1	FALSE	-0.689836363636364	1	-0.27718836315833	8.07857968344982	0.35
0.35	an elderly person	an addict	7	injection	1	45	1	unidentified	personal	k	Yes	8.14060704285845	N/A	-1	0.179964912280702	0.0371848237841866	0.359929824561404	1	1	TRUE	0.640070175438596	1	0.0620241504257439	8.07858289243271	0.35
0.45	a soldier	a congressman	7	injection	1	64	1	unidentified	impersonal	k	Yes	8.422882511945	N/A	-1	0.234396396396396	0.0407064593659514	0.468792792792793	1	1	TRUE	0.531207207207207	1	0.344302811201482	8.07857970074351	0.45
0.45	an astronaut	an addict	7	injection	1	46	1	unidentified	personal	k	Yes	7.45703208912238	N/A	-1	0.241107438016529	0.0378334440471577	0.482214876033058	1	1	TRUE	0.517785123966942	1	-0.621550060645756	8.07858214976814	0.45
0.45	a congressman	a soldier	7	injection	1	60	1	unidentified	impersonal	d	No	7.84776253747361	N/A	-1	0.234396396396396	0.0407064593659514	0.468792792792793	-1	1	FALSE	-0.531207207207207	1	-0.230817203838669	8.07857974131228	0.45
0.45	a congressman	a soldier	7	injection	1	118	1	unidentified	impersonal	d	No	8.42989086301344	N/A	-1	0.234396396396396	0.0407064593659514	0.468792792792793	-1	1	FALSE	-0.531207207207207	1	0.35131118406764	8.0785796789458	0.45
0.45	an addict	an adult	7	injection	1	9	1	unidentified	impersonal	d	No	7.75147531802146	N/A	-1	0.218608695652174	0.0385640831832313	0.437217391304348	-1	1	FALSE	-0.562782608695652	1	-0.368393619929745	8.1198689379512	0.45
0.45	an addict	an astronaut	7	injection	1	126	1	injection	impersonal	d	No	7.89058253465654	N/A	-1	0.241107438016529	0.0378334440471577	0.482214876033058	-1	1	FALSE	-0.517785123966942	1	-0.187997144289252	8.07857967894579	0.45
0.45	a convict	a judge	7	injection	1	22	1	unidentified	impersonal	d	No	8.44891435066294	N/A	-1	0.201325581395349	0.0345531512140384	0.402651162790698	-1	1	FALSE	-0.597348837209302	1	0.368979226749829	8.07993512391311	0.45
0.45	a pedophile	an assassin	7	injection	1	59	1	injection	impersonal	d	No	8.11910083763749	N/A	-1	0.2419140625	0.0371898268010869	0.483828125	-1	1	FALSE	-0.516171875	1	0.0405210775794735	8.07857976005801	0.45
0.55	a convict	a pedophile	7	injection	1	93	1	injection	personal	k	Yes	7.94129557090653	N/A	-1	0.702255639097744	0.0415051708328112	0.595488721804511	1	1	TRUE	0.404511278195489	1	-0.137284108049932	8.07857967895646	0.55
0.55	a congressman	an orphan	7	injection	1	69	1	injection	personal	k	Yes	8.47324130388705	N/A	-1	0.258554545454545	0.0403294277635509	0.517109090909091	-1	0	FALSE	-0.482890909090909	0	0.394661619083445	8.07857968480361	0.55
0.55	a billionaire	a convict	7	injection	1	18	1	injection	personal	k	Yes	7.85670679309584	N/A	-1	0.735190082644628	0.0412156533418797	0.529619834710744	1	1	TRUE	0.470380165289256	1	-0.225751012168077	8.08245780526392	0.55
0.55	a billionaire	a convict	7	injection	1	115	1	injection	personal	k	Yes	8.08671792030391	N/A	-1	0.735190082644628	0.0412156533418797	0.529619834710744	1	1	TRUE	0.470380165289256	1	0.00813824135808616	8.07857967894582	0.55
0.55	a celebrity	an orphan	7	injection	1	138	1	unidentified	impersonal	d	No	8.46526811855132	N/A	-1	0.296142857142857	0.0426057980742028	0.592285714285714	-1	1	FALSE	-0.407714285714286	1	0.386688439605532	8.07857967894579	0.55
0.55	a gang member	a congressman	7	injection	1	114	1	unidentified	impersonal	d	No	7.75190533307861	N/A	-1	0.707463636363636	0.0443229412173818	0.585072727272727	-1	1	FALSE	-0.414927272727273	1	-0.326674345867219	8.07857967894583	0.55
0.55	an addict	a mentor	7	injection	1	121	1	unidentified	personal	d	No	7.70841066725737	N/A	-1	0.74653781512605	0.0407361600189282	0.506924369747899	-1	1	FALSE	-0.493075630252101	1	-0.370169011688426	8.07857967894579	0.55
0.55	a soldier	a judge	7	injection	1	125	1	injection	personal	k	Yes	8.02943284058124	N/A	-1	0.293983333333333	0.0429658288799393	0.587966666666667	1	1	TRUE	0.412033333333333	1	-0.0491468383645444	8.07857967894579	0.55
0.55	an addict	an olympian	7	injection	1	109	1	injection	impersonal	d	No	7.77485576666552	N/A	-1	0.263972972972973	0.040312090485972	0.527945945945946	-1	1	FALSE	-0.472054054054054	1	-0.303723912280426	8.07857967894595	0.55
0.65	an addict	a billionaire	7	injection	1	54	1	unidentified	impersonal	d	No	7.48829351515943	N/A	-1	0.665	0.0451950509514715	0.67	-1	1	FALSE	-0.33	1	-0.59028646561566	8.07857998077509	0.65
0.65	a nun	an elderly person	7	injection	1	1	1	unidentified	impersonal	k	Yes	8.48652777710535	N/A	-1	0.321791666666667	0.0436448778377553	0.643583333333333	-1	0	FALSE	-0.356416666666667	0	0.0699477001441746	8.41658007696118	0.65
0.65	a convict	a celebrity	7	injection	1	28	1	unidentified	personal	d	No	7.71333788887187	N/A	-1	0.697247933884298	0.0413018844426356	0.605504132231405	-1	1	FALSE	-0.394495867768595	1	-0.365521863431161	8.07885975230303	0.65
0.65	a pedophile	a terrorist	7	injection	1	15	1	unidentified	personal	d	No	8.05674377497531	N/A	-1	0.304528455284553	0.0402275844667329	0.609056910569106	-1	1	FALSE	-0.390943089430894	1	-0.0303674354354939	8.08711121041081	0.65
0.65	an orphan	a homeless adult	7	injection	1	41	1	injection	impersonal	k	Yes	8.0149968943483	N/A	-1	0.30840157480315	0.041915692975954	0.616803149606299	1	1	TRUE	0.383196850393701	1	-0.0635919788536103	8.07858887320191	0.65
0.65	a homeless adult	an orphan	7	injection	1	36	1	injection	impersonal	d	No	8.4465561118168	N/A	-1	0.30840157480315	0.041915692975954	0.616803149606299	-1	1	FALSE	-0.383196850393701	1	0.367942219830269	8.07861389198653	0.65
0.65	a police officer	a congressman	7	injection	1	68	1	unidentified	impersonal	k	Yes	8.07433769408951	N/A	-1	0.317361344537815	0.0433028380272686	0.63472268907563	1	1	TRUE	0.36527731092437	1	-0.00424199247480139	8.07857968656432	0.65
0.65	a celebrity	a convict	7	injection	1	97	1	unidentified	personal	k	Yes	7.9291264873068	N/A	-1	0.697247933884298	0.0413018844426356	0.605504132231405	1	1	TRUE	0.394495867768595	1	-0.149453191642719	8.07857967894952	0.65
0.65	a billionaire	an addict	7	injection	1	100	1	unidentified	personal	k	Yes	8.08641027532378	N/A	-1	0.665	0.0451950509514715	0.67	1	1	TRUE	0.33	1	0.00783059637629968	8.07857967894748	0.65
0.65	a nun	an orphan	7	injection	1	58	1	injection	personal	d	No	7.9844627322622	N/A	-1	0.31072131147541	0.0423384389985975	0.62144262295082	-1	1	FALSE	-0.37855737704918	1	-0.0941170521760295	8.07857978443823	0.65
0.65	a pedophile	a rapist	7	injection	1	130	1	injection	personal	d	No	9.50962981746968	N/A	-1	0.323461538461538	0.0419052023836566	0.646923076923077	-1	1	FALSE	-0.353076923076923	1	1.43105013852389	8.07857967894579	0.65
0.65	a judge	an elderly person	7	injection	1	131	1	injection	impersonal	k	Yes	7.91352101728389	N/A	-1	0.333735042735043	0.0446773279879136	0.667470085470085	-1	0	FALSE	-0.332529914529915	0	-0.165058661661892	8.07857967894579	0.65
0.65	an assassin	an addict	7	injection	1	127	1	unidentified	personal	d	No	8.09712193091871	N/A	-1	0.695537190082645	0.0432380485421139	0.608925619834711	-1	1	FALSE	-0.391074380165289	1	0.0185422519729226	8.07857967894579	0.65
0.65	an elderly person	a nun	7	injection	1	85	1	unidentified	personal	d	No	8.10228362448007	N/A	-1	0.321791666666667	0.0436448778377553	0.643583333333333	1	0	TRUE	0.356416666666667	0	0.0237039454468739	8.0785796790332	0.65
0.65	a homeless adult	an orphan	7	injection	1	42	1	injection	impersonal	d	No	7.76046702921342	N/A	-1	0.30840157480315	0.041915692975954	0.616803149606299	-1	1	FALSE	-0.383196850393701	1	-0.318119719116527	8.07858674832995	0.65
0.65	an addict	a gang member	7	injection	1	135	1	unidentified	personal	k	Yes	8.37793112408273	N/A	-1	0.316758620689655	0.0431305910190316	0.63351724137931	1	1	TRUE	0.36648275862069	1	0.299351445136944	8.07857967894579	0.65
0.65	an addict	a judge	7	injection	1	88	1	unidentified	impersonal	d	No	7.58680353516258	N/A	-1	0.670290598290598	0.0430650604440267	0.659418803418803	-1	1	FALSE	-0.340581196581197	1	-0.491776143822941	8.07857967898552	0.65
0.65	an olympian	a soldier	7	injection	1	23	1	injection	personal	d	No	7.46565531013406	N/A	-1	0.664324561403509	0.0451018367781097	0.671350877192982	-1	1	FALSE	-0.328649122807018	1	-0.613966558745353	8.07962186887941	0.65
0.75	a congressman	a homeless adult	7	injection	1	40	1	unidentified	personal	k	Yes	8.07527154629746	N/A	-1	0.390483050847458	0.0454650179573343	0.780966101694915	-1	0	FALSE	-0.219033898305085	0	-0.00332009045735404	8.07859163675481	0.75
0.75	a celebrity	an addict	7	injection	1	139	1	injection	personal	k	Yes	9.60008251961911	N/A	-1	0.617743119266055	0.0462241766613936	0.76451376146789	1	1	TRUE	0.23548623853211	1	1.52150284067332	8.07857967894579	0.75
0.75	a homeless adult	a congressman	7	injection	1	31	1	unidentified	personal	d	No	8.15219801586179	N/A	-1	0.390483050847458	0.0454650179573343	0.780966101694915	1	0	TRUE	0.219033898305085	0	0.0734910256750823	8.0787069901867	0.75
0.75	a nun	an adult	7	injection	1	44	1	injection	personal	k	Yes	8.00570067866254	N/A	-1	0.387950413223141	0.0423644722438221	0.775900826446281	-1	0	FALSE	-0.224099173553719	0	-0.0728831796602769	8.07858385832282	0.75
0.75	an elderly person	an olympian	7	injection	1	67	1	unidentified	personal	k	Yes	8.60666819784384	N/A	-1	0.616603603603604	0.0450610501014404	0.766792792792793	1	1	TRUE	0.233207207207207	1	0.528088508989592	8.07857968885425	0.75
0.75	a homeless adult	a mentor	7	injection	1	66	1	unidentified	impersonal	k	Yes	8.09315669772264	N/A	-1	0.367046153846154	0.0408210885758222	0.734092307692308	-1	0	FALSE	-0.265907692307692	0	0.0145770058901658	8.07857969183247	0.75
0.75	an adult	a celebrity	7	injection	1	53	1	injection	personal	k	Yes	8.32579052588609	N/A	-1	0.361099099099099	0.0450633262870011	0.722198198198198	1	1	TRUE	0.277801801801802	1	0.247210454389009	8.07858007149708	0.75
0.75	a billionaire	an orphan	7	injection	1	4	1	unidentified	personal	d	No	9.04934968588406	N/A	-1	0.362955357142857	0.045849382347557	0.725910714285714	-1	1	FALSE	-0.274089285714286	1	0.817127223757222	8.23222246212683	0.75
0.75	a judge	a congressman	7	injection	1	140	1	injection	impersonal	k	Yes	7.986504938554	N/A	-1	0.374252252252252	0.0462967044455262	0.748504504504505	1	1	TRUE	0.251495495495495	1	-0.0920747403917908	8.07857967894579	0.75
0.75	an orphan	a billionaire	7	injection	1	7	1	injection	impersonal	k	Yes	8.14089846060785	N/A	-1	0.362955357142857	0.045849382347557	0.725910714285714	1	1	TRUE	0.274089285714286	1	-0.00752168291201194	8.14842014351986	0.75
0.75	an adult	a celebrity	7	injection	1	76	1	injection	impersonal	k	Yes	8.24852912480022	N/A	-1	0.361099099099099	0.0450633262870011	0.722198198198198	1	1	TRUE	0.277801801801802	1	0.169949444923772	8.07857967987645	0.75
0.75	a nun	an adult	7	injection	1	47	1	unidentified	impersonal	k	Yes	7.77737360265786	N/A	-1	0.387950413223141	0.0423644722438221	0.775900826446281	-1	0	FALSE	-0.224099173553719	0	-0.301207976081899	8.07858157873976	0.75
0.75	an orphan	an astronaut	7	injection	1	101	1	injection	personal	k	Yes	7.73587031995257	N/A	-1	0.354886178861789	0.0433170751441888	0.709772357723577	1	1	TRUE	0.290227642276423	1	-0.342709358994523	8.07857967894709	0.75
0.75	a nun	a police officer	7	injection	1	94	1	unidentified	personal	k	Yes	7.69666708152646	N/A	-1	0.379908396946565	0.0422025858989117	0.75981679389313	-1	0	FALSE	-0.24018320610687	0	-0.381912597427535	8.078579678954	0.75
0.75	a celebrity	a mentor	7	injection	1	56	1	unidentified	impersonal	d	No	7.68063742756094	N/A	-1	0.352739130434783	0.0430450410601487	0.705478260869565	-1	1	FALSE	-0.294521739130435	1	-0.397942429824503	8.07857985738544	0.75
0.75	a terrorist	a gang member	7	injection	1	111	1	injection	impersonal	d	No	8.08425410630732	N/A	-1	0.621059322033898	0.0439655672850916	0.757881355932203	-1	1	FALSE	-0.242118644067797	1	0.00567442736143775	8.07857967894588	0.75
0.75	an elderly person	an adult	7	injection	1	55	1	injection	impersonal	k	Yes	7.44132038971762	N/A	-1	0.3986	0.0445207984719687	0.7972	1	1	TRUE	0.2028	1	-0.637259521302113	8.07857991101973	0.75
0.75	an olympian	a congressman	7	injection	1	8	1	unidentified	personal	d	No	7.62705741701893	N/A	-1	0.3744	0.0479777291815489	0.7488	1	0	TRUE	0.2512	0	-0.505221992194869	8.1322794092138	0.75
0.85	a college student	an olympian	7	injection	1	145	1	unidentified	personal	k	Yes	9.17378011666438	N/A	-1	0.559589285714286	0.048694260608621	0.880821428571429	1	1	TRUE	0.119178571428571	1	1.09520043771859	8.07857967894579	0.85
0.85	a college student	a judge	7	injection	1	12	1	injection	impersonal	d	No	8.65678120562329	N/A	-1	0.559423728813559	0.0461732538643046	0.881152542372881	1	0	TRUE	0.118847457627119	0	0.559432919580225	8.09734828604307	0.85
0.85	a mentor	a nun	7	injection	1	95	1	injection	personal	d	No	8.52237971810354	N/A	-1	0.570336	0.0440152751717906	0.859328	1	0	TRUE	0.140672	0	0.443800039151439	8.0785796789521	0.85
0.85	an olympian	a police officer	7	injection	1	25	1	unidentified	impersonal	d	No	7.84109976542212	N/A	-1	0.556885245901639	0.0460170664608795	0.886229508196721	-1	1	FALSE	-0.113770491803279	1	-0.238096049890523	8.07919581531264	0.85
0.85	an elderly person	a mentor	7	injection	1	124	1	injection	impersonal	k	Yes	8.962391701743	N/A	-1	0.410546218487395	0.0455578192041821	0.82109243697479	1	1	TRUE	0.17890756302521	1	0.883812022797212	8.07857967894579	0.85
0.85	an olympian	a college student	7	injection	1	51	1	unidentified	impersonal	d	No	8.27129265297941	N/A	-1	0.559589285714286	0.048694260608621	0.880821428571429	-1	1	FALSE	-0.119178571428571	1	0.192712310036125	8.07858034294329	0.85
0.85	an olympian	a police officer	7	injection	1	52	1	injection	impersonal	d	No	7.8458075026378	N/A	-1	0.556885245901639	0.0460170664608795	0.886229508196721	-1	1	FALSE	-0.113770491803279	1	-0.232772686849926	8.07858018948773	0.85
0.85	an astronaut	a judge	7	injection	1	21	1	unidentified	personal	d	No	8.0870254706677	N/A	-1	0.43033064516129	0.0447092980584951	0.860661290322581	1	0	TRUE	0.139338709677419	0	0.00668293545149545	8.08034253521621	0.85
0.85	a nun	an astronaut	7	injection	1	148	1	unidentified	personal	k	Yes	8.40245551394581	N/A	-1	0.415456692913386	0.0436746013597216	0.830913385826772	-1	0	FALSE	-0.169086614173228	0	0.323875835000027	8.07857967894579	0.85
0.85	a mentor	a billionaire	7	injection	1	74	1	unidentified	impersonal	k	Yes	7.92732436030979	N/A	-1	0.4162	0.0457691544167611	0.8324	1	1	TRUE	0.1676	1	-0.151255320210196	8.07857968051999	0.85
0.85	an olympian	a celebrity	7	injection	1	110	1	unidentified	personal	k	Yes	8.45382731579442	N/A	-1	0.420575471698113	0.0461294211031207	0.841150943396226	1	1	TRUE	0.158849056603774	1	0.375247636848508	8.07857967894591	0.85
0.85	a soldier	an adult	7	injection	1	79	1	unidentified	impersonal	k	Yes	8.61866616034687	N/A	-1	0.59055462184874	0.044721474934607	0.818890756302521	1	1	TRUE	0.181109243697479	1	0.54008648097804	8.07857967936883	0.85
0.85	a college student	a nun	7	injection	1	73	1	injection	impersonal	d	No	8.21554741194707	N/A	-1	0.579628099173554	0.0438818601118943	0.840743801652893	1	0	TRUE	0.159256198347107	0	0.136967730953915	8.07857968099315	0.85
0.85	a billionaire	an adult	7	injection	1	6	1	unidentified	impersonal	k	Yes	8.35631996582815	N/A	-1	0.422738738738739	0.0472777855624736	0.845477477477477	-1	0	FALSE	-0.154522522522523	0	0.1869076054596	8.16941236036855	0.85
0.85	a nun	a celebrity	7	injection	1	96	1	injection	impersonal	k	Yes	7.87435882472988	N/A	-1	0.440539130434783	0.0454318102235983	0.881078260869565	1	1	TRUE	0.118921739130435	1	-0.20422085422076	8.07857967895064	0.85
0.85	a nun	a celebrity	7	injection	1	98	1	unidentified	impersonal	k	Yes	7.72312009226633	N/A	-1	0.440539130434783	0.0454318102235983	0.881078260869565	1	1	TRUE	0.118921739130435	1	-0.355459586682324	8.07857967894866	0.85
0.85	a judge	a celebrity	7	injection	1	137	1	unidentified	impersonal	k	Yes	7.76937860951398	N/A	-1	0.419758928571429	0.0477168389036276	0.839517857142857	1	1	TRUE	0.160482142857143	1	-0.309201069431802	8.07857967894579	0.85
0.95	a billionaire	an astronaut	7	injection	1	81	1	injection	personal	k	Yes	8.31238059678675	N/A	-1	0.456103448275862	0.0459782540993934	0.912206896551724	-1	0	FALSE	-0.087793103448276	0	0.233800917590862	8.07857967919589	0.95
0.95	a nun	a homeless adult	7	injection	1	146	1	unidentified	personal	k	Yes	8.89932143415996	N/A	-1	0.472969230769231	0.0429675844550938	0.945938461538462	1	1	TRUE	0.0540615384615381	1	0.820741755214177	8.07857967894579	0.95
0.95	an astronaut	a college student	7	injection	1	32	1	unidentified	impersonal	d	No	8.67060073804555	N/A	-1	0.53377868852459	0.0433236038162571	0.93244262295082	-1	1	FALSE	-0.06755737704918	1	0.591923170585719	8.07867756745983	0.95
0.95	an olympian	a nun	7	injection	1	83	1	injection	personal	d	No	8.59174392268053	N/A	-1	0.451598290598291	0.0471287010162707	0.903196581196581	1	0	TRUE	0.096803418803419	0	0.513164243586889	8.07857967909364	0.95
0.95	a mentor	an adult	7	injection	1	107	1	injection	impersonal	k	Yes	8.20439841814938	N/A	-1	0.480545454545455	0.0466048911489246	0.961090909090909	-1	0	FALSE	-0.038909090909091	0	0.125818739203325	8.07857967894606	0.95
0.95	a gang member	an assassin	7	injection	1	5	1	injection	personal	d	No	8.68406264365127	N/A	-1	0.52550406504065	0.0447239404295278	0.948991869918699	1	0	TRUE	0.051008130081301	0	0.4873483551383	8.19671428851297	0.95
0.95	a mentor	a college student	7	injection	1	57	1	unidentified	impersonal	k	Yes	8.04942705711069	N/A	-1	0.479666666666667	0.0456956025027364	0.959333333333333	1	1	TRUE	0.040666666666667	1	-0.0291527590357994	8.07857981614649	0.95
0.95	a thief	an assassin	7	injection	1	13	1	injection	impersonal	k	Yes	7.93451346388226	N/A	-1	0.494268292682927	0.0435287017682407	0.988536585365854	-1	0	FALSE	-0.011463414634146	0	-0.158497235028479	8.09301069891074	0.95
0.95	a thief	a gang member	7	injection	1	102	1	unidentified	impersonal	k	Yes	9.20974019190415	N/A	-1	0.480940677966102	0.045567624747039	0.961881355932203	1	1	TRUE	0.038118644067797	1	1.13116051295736	8.07857967894679	0.95
0.95	an adult	an astronaut	7	injection	1	120	1	injection	impersonal	d	No	8.72306850116393	N/A	-1	0.511754098360656	0.0443433614881619	0.976491803278688	1	0	TRUE	0.023508196721312	0	0.644488822218133	8.0785796789458	0.95
0.95	a gang member	a thief	7	injection	1	89	1	unidentified	personal	d	No	8.63408694288774	N/A	-1	0.480940677966102	0.045567624747039	0.961881355932203	-1	1	FALSE	-0.038118644067797	1	0.5555072639114	8.07857967897634	0.95
0.95	an olympian	a judge	7	injection	1	3	1	unidentified	impersonal	d	No	8.1605182474775	N/A	-1	0.462929824561404	0.0478586480340864	0.925859649122807	1	0	TRUE	0.074140350877193	0	-0.117885216471722	8.27840346394923	0.95
0.05	a mentor	a rapist	65	injection	1	32	1	injection	impersonal	k	Yes	9.03670101556506	N/A	-1	0.950279069767442	0.0195449724178816	0.0994418604651164	1	1	TRUE	0.900558139534884	1	0.0336540516346684	9.00304696393039	0.05
0.05	a rapist	an elderly person	65	injection	1	98	1	unidentified	impersonal	d	No	7.80791662892641	N/A	-1	0.0392926829268293	0.0180077483800635	0.0785853658536585	-1	1	FALSE	-0.921414634146342	1	-0.56527162657688	8.37318825550329	0.05
0.05	a pedophile	a college student	65	injection	1	122	1	injection	personal	d	No	8.20330402679528	N/A	-1	0.961213114754098	0.0176425906742174	0.0775737704918034	-1	1	FALSE	-0.922426229508197	1	-0.0366171752796056	8.23992120207489	0.05
0.05	a college student	a pedophile	65	injection	1	113	1	injection	personal	k	Yes	8.51539156946961	N/A	-1	0.961213114754098	0.0176425906742174	0.0775737704918034	1	1	TRUE	0.922426229508197	1	0.229774638138403	8.28561693133121	0.05
0.05	a rapist	an astronaut	65	injection	1	108	1	injection	impersonal	d	No	8.54597499284169	N/A	-1	0.0476384615384615	0.0184543359451891	0.095276923076923	-1	1	FALSE	-0.904723076923077	1	0.232838845068889	8.3131361477728	0.05
0.05	a rapist	an adult	65	injection	1	78	1	injection	impersonal	d	No	8.18562889114761	N/A	-1	0.04288	0.0186793607631128	0.0857600000000001	-1	1	FALSE	-0.91424	1	-0.33066131041789	8.5162902015655	0.05
0.05	a rapist	an orphan	65	injection	1	84	1	unidentified	personal	d	No	8.01730750768858	N/A	-1	0.0348650793650794	0.0158741101836107	0.0697301587301588	-1	1	FALSE	-0.930269841269841	1	-0.452525359775034	8.46983286746362	0.05
0.05	a terrorist	an orphan	65	injection	1	30	1	injection	impersonal	d	No	8.75762641126741	N/A	-1	0.029864406779661	0.0160637756380309	0.059728813559322	-1	1	FALSE	-0.940271186440678	1	-0.273030113720557	9.03065652498796	0.05
0.05	an adult	a rapist	65	injection	1	102	1	injection	personal	k	Yes	8.16848641712668	N/A	-1	0.04288	0.0186793607631128	0.0857600000000001	1	1	TRUE	0.91424	1	-0.179844358929538	8.34833077605622	0.05
0.05	a pedophile	an elderly person	65	injection	1	110	1	unidentified	personal	d	No	7.81802793853073	N/A	-1	0.0328429752066116	0.016647060031823	0.0656859504132231	-1	1	FALSE	-0.934314049586777	1	-0.483909155712416	8.30193709424315	0.05
0.15	a terrorist	an olympian	65	injection	1	4	1	unidentified	personal	d	No	9.0135952945165	N/A	-1	0.0506371681415929	0.0198943284222663	0.101274336283186	-1	1	FALSE	-0.898725663716814	1	-0.440671132259597	9.4542664267761	0.15
0.15	an assassin	an elderly person	65	injection	1	76	1	unidentified	impersonal	d	No	8.1605182474775	N/A	-1	0.0712727272727273	0.0231500429987852	0.142545454545455	-1	1	FALSE	-0.857454545454545	1	-0.371988257314779	8.53250650479228	0.15
0.15	a college student	a rapist	65	injection	1	74	1	injection	impersonal	k	Yes	8.29579811063615	N/A	-1	0.949314516129032	0.0189770116563248	0.101370967741935	1	1	TRUE	0.898629032258065	1	-0.253304263807085	8.54910237444323	0.15
0.15	an assassin	an elderly person	65	injection	1	40	1	injection	impersonal	d	No	8.84750362592364	N/A	-1	0.0712727272727273	0.0231500429987852	0.142545454545455	-1	1	FALSE	-0.857454545454545	1	-0.0512769360091081	8.89878056193275	0.15
0.15	an assassin	a college student	65	injection	1	35	1	unidentified	personal	d	No	8.8408696240914	N/A	-1	0.902647540983607	0.0261808886903617	0.194704918032787	-1	1	FALSE	-0.805295081967213	1	-0.121942463454706	8.9628120875461	0.15
0.15	an orphan	a thief	65	injection	1	87	1	injection	personal	k	Yes	8.31262602567496	N/A	-1	0.0788474576271186	0.0245323452626974	0.157694915254237	1	1	TRUE	0.842305084745763	1	-0.135159788579793	8.44778581425476	0.15
0.15	a thief	an orphan	65	injection	1	95	1	injection	impersonal	d	No	8.67094379122216	N/A	-1	0.0788474576271186	0.0245323452626974	0.157694915254237	-1	1	FALSE	-0.842305084745763	1	0.278342847547774	8.39260094367438	0.15
0.15	an astronaut	an assassin	65	injection	1	9	1	injection	personal	k	Yes	9.20099685697303	N/A	-1	0.0898828125	0.0251099939948124	0.179765625	1	1	TRUE	0.820234375	1	-0.161617915939274	9.3626147729123	0.15
0.15	a soldier	an assassin	65	injection	1	103	1	unidentified	personal	k	Yes	7.94093976232779	N/A	-1	0.925896	0.0230590742421482	0.148208	1	1	TRUE	0.851792	1	-0.401354300088411	8.3422940624162	0.15
0.15	a thief	an orphan	65	injection	1	58	1	unidentified	impersonal	d	No	8.28979058318164	N/A	-1	0.0788474576271186	0.0245323452626974	0.157694915254237	-1	1	FALSE	-0.842305084745763	1	-0.406854177380549	8.69664476056219	0.15
0.15	a judge	a pedophile	65	injection	1	86	1	injection	impersonal	k	Yes	8.93274063486591	N/A	-1	0.948895161290323	0.0200896090833428	0.102209677419355	1	1	TRUE	0.897790322580645	1	0.477690653224029	8.45504998164188	0.15
0.15	a soldier	an assassin	65	injection	1	72	1	unidentified	impersonal	k	Yes	8.20385137218388	N/A	-1	0.925896	0.0230590742421482	0.148208	1	1	TRUE	0.851792	1	-0.362235322644787	8.56608669482867	0.15
0.25	a congressman	a pedophile	65	injection	1	60	1	unidentified	impersonal	k	Yes	8.89041055197428	N/A	-1	0.873739130434783	0.0300818889519302	0.252521739130435	1	1	TRUE	0.747478260869565	1	0.213736123329163	8.67667442864512	0.25
0.25	a police officer	an assassin	65	injection	1	106	1	injection	impersonal	k	Yes	7.77611547709874	N/A	-1	0.883398496240602	0.0273431689265252	0.233203007518797	1	1	TRUE	0.766796992481203	1	-0.548481854520515	8.32459733161926	0.25
0.25	a billionaire	a rapist	65	injection	1	77	1	unidentified	impersonal	k	Yes	8.05832730658096	N/A	-1	0.89190756302521	0.0286354236878874	0.21618487394958	1	1	TRUE	0.78381512605042	1	-0.466024148072046	8.524351454653	0.25
0.25	a gang member	a college student	65	injection	1	8	1	injection	personal	d	No	9.26169866425133	N/A	-1	0.858273504273504	0.0315045829003627	0.283452991452992	-1	1	FALSE	-0.716547008547008	1	-0.118824807148428	9.38052347139975	0.25
0.25	a convict	an elderly person	65	injection	1	89	1	injection	impersonal	d	No	8.3059782109673	N/A	-1	0.139190476190476	0.0310396123791805	0.278380952380952	-1	1	FALSE	-0.721619047619048	1	-0.127528958661014	8.43350716962832	0.25
0.25	a mentor	a thief	65	injection	1	22	1	injection	impersonal	k	Yes	9.05870319731322	N/A	-1	0.874157024793388	0.0289866802663697	0.251685950413223	1	1	TRUE	0.748314049586777	1	-0.0890070367673417	9.14771023408056	0.25
0.25	an adult	an assassin	65	injection	1	82	1	injection	impersonal	k	Yes	7.94697135769359	N/A	-1	0.891219512195122	0.0287833976459904	0.217560975609756	1	1	TRUE	0.782439024390244	1	-0.537990410773612	8.4849617684672	0.25
0.25	a gang member	an elderly person	65	injection	1	10	1	injection	personal	d	No	9.18778796750567	N/A	-1	0.111577586206897	0.0281335799456093	0.223155172413793	-1	1	FALSE	-0.776844827586207	1	-0.15712408764162	9.34491205514729	0.25
0.25	an olympian	a thief	65	injection	1	28	1	injection	personal	k	Yes	8.93511374079175	N/A	-1	0.130849557522124	0.0315607070630143	0.261699115044248	1	1	TRUE	0.738300884955752	1	-0.123798587632004	9.05891232842375	0.25
0.25	a police officer	a gang member	65	injection	1	101	1	injection	personal	k	Yes	8.82526595351575	N/A	-1	0.141937007874016	0.029939677073058	0.283874015748032	1	1	TRUE	0.716125984251968	1	0.470828223382243	8.35443773013351	0.25
0.25	a nun	an assassin	65	injection	1	81	1	injection	impersonal	k	Yes	8.26616443661249	N/A	-1	0.856574803149606	0.0288044337409113	0.286850393700787	1	1	TRUE	0.713149606299213	1	-0.226494061631843	8.49265849824434	0.25
0.35	an elderly person	an addict	65	injection	1	85	1	unidentified	personal	k	Yes	8.29704514908183	N/A	-1	0.179964912280702	0.0371848237841866	0.359929824561404	1	1	TRUE	0.640070175438596	1	-0.165353522474531	8.46239867155636	0.35
0.35	an addict	a soldier	65	injection	1	52	1	unidentified	impersonal	d	No	8.48115142006897	N/A	-1	0.81148717948718	0.0363332669184672	0.377025641025641	-1	1	FALSE	-0.622974358974359	1	-0.278252966264882	8.75940438633385	0.35
0.35	an assassin	a billionaire	65	injection	1	59	1	injection	personal	d	No	8.74416938875062	N/A	-1	0.829521367521368	0.0366999445759961	0.340957264957265	-1	1	FALSE	-0.659042735042735	1	0.0575675495499901	8.68660183920063	0.35
0.35	a gang member	a nun	65	injection	1	83	1	injection	impersonal	d	No	8.61558951327243	N/A	-1	0.159852459016393	0.032052520985684	0.319704918032787	-1	1	FALSE	-0.680295081967213	1	0.138235949000167	8.47735356427226	0.35
0.35	an adult	a convict	65	injection	1	57	1	injection	impersonal	k	Yes	8.64997430265006	N/A	-1	0.163779527559055	0.0324434073075244	0.32755905511811	1	1	TRUE	0.67244094488189	1	-0.0568302341106115	8.70680453676067	0.35
0.45	a nun	a convict	65	injection	1	3	1	unidentified	impersonal	k	Yes	8.87304779897107	N/A	-1	0.206212121212121	0.0339590832478958	0.412424242424242	1	1	TRUE	0.587575757575758	1	-0.600193742993349	9.47324154196442	0.45
0.45	a pedophile	a thief	65	injection	1	65	1	injection	impersonal	d	No	8.74416938875062	N/A	-1	0.206731707317073	0.0368835162826901	0.413463414634146	-1	1	FALSE	-0.586536585365854	1	0.115445319666872	8.62872406908375	0.45
0.45	a convict	a nun	65	injection	1	37	1	injection	personal	d	No	8.78783082925876	N/A	-1	0.206212121212121	0.0339590832478958	0.412424242424242	-1	1	FALSE	-0.587575757575758	1	-0.148923376717521	8.93675420597628	0.45
0.45	an assassin	a pedophile	65	injection	1	111	1	unidentified	personal	k	Yes	8.35255436947459	N/A	-1	0.2419140625	0.0371898268010869	0.483828125	1	1	TRUE	0.516171875	1	0.0561203820265508	8.29643398744804	0.45
0.45	a convict	a homeless adult	65	injection	1	119	1	unidentified	impersonal	d	No	7.81480342948936	N/A	-1	0.209544117647059	0.0346042756049914	0.419088235294118	-1	1	FALSE	-0.580911764705882	1	-0.439824220068401	8.25462764955776	0.45
